pos,corr_resp,thisN,thisTrialN,thisRepN,key_resp.keys,key_resp.corr,key_resp.rt,key_resp.duration,trials.thisRepN,trials.thisTrialN,trials.thisN,trials.thisIndex,trials_2.thisRepN,trials_2.thisTrialN,trials_2.thisN,trials_2.thisIndex,thisRow.t,notes,trial.started,fixation.started,line1.started,line2.started,line3.started,line4.started,fixation.stopped,probe.started,key_resp.started,trial.stopped,trials.key_resp.keys,trials.key_resp.corr,trials.key_resp.rt,trials.key_resp.duration,trials_2.key_resp.keys,trials_2.key_resp.corr,trials_2.key_resp.rt,trials_2.key_resp.duration,participant,session,date,expName,psychopyVersion,frameRate,expStart,
-150,z,0,0,0,z,1,0.4149942999938503,None,0,0,0,0,,,,,0.018898900016210973,,0.012714199954643846,0.018898900016210973,1.001827699947171,1.001827699947171,1.001827699947171,1.001827699947171,1.01857650000602,2.001786299981177,2.001786299981177,2.5591269999276847,z,1,0.4149942999938503,None,,,,,564955,001,2024-10-17_11h49.46.040,motor_sequence,2024.2.1post4,59.923908655285594,2024-10-17 11h50.02.882028 +0530,
-50,x,1,1,0,x,1,0.6185197000158951,None,0,1,1,1,,,,,2.5654225000180304,,2.559479699935764,2.5654225000180304,3.5684091999428347,3.5684091999428347,3.5684091999428347,3.5684091999428347,3.5684091999428347,4.567854600027204,4.567854600027204,5.204159299959429,x,1,0.6185197000158951,None,,,,,564955,001,2024-10-17_11h49.46.040,motor_sequence,2024.2.1post4,59.923908655285594,2024-10-17 11h50.02.882028 +0530,
50,c,2,2,0,c,1,0.4882231999654323,None,0,2,2,2,,,,,5.21803450002335,,5.204755299957469,5.21803450002335,6.217912400024943,6.217912400024943,6.217912400024943,6.217912400024943,6.217912400024943,7.217663899995387,7.217663899995387,7.720500799943693,c,1,0.4882231999654323,None,,,,,564955,001,2024-10-17_11h49.46.040,motor_sequence,2024.2.1post4,59.923908655285594,2024-10-17 11h50.02.882028 +0530,
150,v,3,3,0,v,1,0.31122250005137175,None,0,3,3,3,,,,,7.734398199943826,,7.721090600010939,7.734398199943826,8.733862099936232,8.733862099936232,8.733862099936232,8.733862099936232,8.733862099936232,9.734003399964422,9.734003399964422,10.05281769996509,v,1,0.31122250005137175,None,,,,,564955,001,2024-10-17_11h49.46.040,motor_sequence,2024.2.1post4,59.923908655285594,2024-10-17 11h50.02.882028 +0530,
-150,z,4,0,1,z,1,0.3315055000130087,None,1,0,4,0,,,,,10.067375999991782,,10.053433699999005,10.067375999991782,11.067007099976763,11.067007099976763,11.067007099976763,11.067007099976763,11.067007099976763,12.0671474999981,12.0671474999981,12.402343299938366,z,1,0.3315055000130087,None,,,,,564955,001,2024-10-17_11h49.46.040,motor_sequence,2024.2.1post4,59.923908655285594,2024-10-17 11h50.02.882028 +0530,
-50,x,5,1,1,x,1,0.31673149997368455,None,1,1,5,1,,,,,12.416811699979007,,12.40285800001584,12.416811699979007,13.416407599928789,13.416407599928789,13.416407599928789,13.416407599928789,13.416407599928789,14.417053899960592,14.417053899960592,14.736243500025012,x,1,0.31673149997368455,None,,,,,564955,001,2024-10-17_11h49.46.040,motor_sequence,2024.2.1post4,59.923908655285594,2024-10-17 11h50.02.882028 +0530,
50,c,6,2,1,c,1,0.36108460009563714,None,1,2,6,2,,,,,14.75066889997106,,14.736852700007148,14.75066889997106,15.753818599972874,15.753818599972874,15.753818599972874,15.753818599972874,15.753818599972874,16.749710500007495,16.749710500007495,17.11858669994399,c,1,0.36108460009563714,None,,,,,564955,001,2024-10-17_11h49.46.040,motor_sequence,2024.2.1post4,59.923908655285594,2024-10-17 11h50.02.882028 +0530,
150,v,7,3,1,v,1,0.2742725000716746,None,1,3,7,3,,,,,17.132943099946715,,17.119169699959457,17.132943099946715,18.133005999960005,18.133005999960005,18.133005999960005,18.133005999960005,18.133005999960005,19.132918199989945,19.132918199989945,19.418387499987148,v,1,0.2742725000716746,None,,,,,564955,001,2024-10-17_11h49.46.040,motor_sequence,2024.2.1post4,59.923908655285594,2024-10-17 11h50.02.882028 +0530,
-150,z,8,0,2,z,1,0.5696992001030594,None,2,0,8,0,,,,,19.43271339999046,,19.418978399946354,19.43271339999046,20.43259889993351,20.43259889993351,20.43259889993351,20.43259889993351,20.43259889993351,21.43266950000543,21.43266950000543,22.018195900018327,z,1,0.5696992001030594,None,,,,,564955,001,2024-10-17_11h49.46.040,motor_sequence,2024.2.1post4,59.923908655285594,2024-10-17 11h50.02.882028 +0530,
-50,x,9,1,2,x,1,0.2866894999751821,None,2,1,9,1,,,,,22.032366100000218,,22.0187816999387,22.032366100000218,23.032376699964516,23.032376699964516,23.032376699964516,23.032376699964516,23.032376699964516,24.032279099919833,24.032279099919833,24.33325399993919,x,1,0.2866894999751821,None,,,,,564955,001,2024-10-17_11h49.46.040,motor_sequence,2024.2.1post4,59.923908655285594,2024-10-17 11h50.02.882028 +0530,
50,c,10,2,2,c,1,0.29984640004113317,None,2,2,10,2,,,,,24.34826240001712,,24.333656099974178,24.34826240001712,25.348772199940868,25.348772199940868,25.348772199940868,25.348772199940868,25.348772199940868,26.34882940002717,26.34882940002717,26.651259299949743,c,1,0.29984640004113317,None,,,,,564955,001,2024-10-17_11h49.46.040,motor_sequence,2024.2.1post4,59.923908655285594,2024-10-17 11h50.02.882028 +0530,
150,v,11,3,2,v,1,0.3069913999643177,None,2,3,11,3,,,,,26.664730899967253,,26.65207690000534,26.664730899967253,27.664844000013545,27.664844000013545,27.664844000013545,27.664844000013545,27.664844000013545,28.66502960002981,28.66502960002981,28.98384709993843,v,1,0.3069913999643177,None,,,,,564955,001,2024-10-17_11h49.46.040,motor_sequence,2024.2.1post4,59.923908655285594,2024-10-17 11h50.02.882028 +0530,
-150,z,12,0,3,z,1,0.37774290004745126,None,3,0,12,0,,,,,28.9981430999469,,28.9844802999869,28.9981430999469,29.9981782999821,29.9981782999821,29.9981782999821,29.9981782999821,29.9981782999821,30.99788499996066,30.99788499996066,31.383392499992624,z,1,0.37774290004745126,None,,,,,564955,001,2024-10-17_11h49.46.040,motor_sequence,2024.2.1post4,59.923908655285594,2024-10-17 11h50.02.882028 +0530,
-50,x,13,1,3,x,1,0.2990813999203965,None,3,1,13,1,,,,,31.39780969999265,,31.383911999990232,31.39780969999265,32.39781180000864,32.39781180000864,32.39781180000864,32.39781180000864,32.39781180000864,33.39729350002017,33.39729350002017,33.70027699996717,x,1,0.2990813999203965,None,,,,,564955,001,2024-10-17_11h49.46.040,motor_sequence,2024.2.1post4,59.923908655285594,2024-10-17 11h50.02.882028 +0530,
50,c,14,2,3,c,1,0.21840070001780987,None,3,2,14,2,,,,,33.71431820001453,,33.70083739992697,33.71431820001453,34.714375199982896,34.714375199982896,34.714375199982896,34.714375199982896,34.714375199982896,35.7140906000277,35.7140906000277,35.94980109995231,c,1,0.21840070001780987,None,,,,,564955,001,2024-10-17_11h49.46.040,motor_sequence,2024.2.1post4,59.923908655285594,2024-10-17 11h50.02.882028 +0530,
150,v,15,3,3,v,1,0.3033851000946015,None,3,3,15,3,,,,,35.9643351000268,,35.95036479993723,35.9643351000268,36.963747399975546,36.963747399975546,36.963747399975546,36.963747399975546,36.963747399975546,37.96384879993275,37.96384879993275,38.28283249994274,v,1,0.3033851000946015,None,,,,,564955,001,2024-10-17_11h49.46.040,motor_sequence,2024.2.1post4,59.923908655285594,2024-10-17 11h50.02.882028 +0530,
-150,z,16,0,4,z,1,0.8737426999723539,None,4,0,16,0,,,,,38.29694839997683,,38.28339729993604,38.29694839997683,39.296831500018016,39.296831500018016,39.296831500018016,39.296831500018016,39.296831500018016,40.2967652999796,40.2967652999796,41.18228269997053,z,1,0.8737426999723539,None,,,,,564955,001,2024-10-17_11h49.46.040,motor_sequence,2024.2.1post4,59.923908655285594,2024-10-17 11h50.02.882028 +0530,
-50,x,17,1,4,x,1,0.3186009000055492,None,4,1,17,1,,,,,41.19646849995479,,41.18279520003125,41.19646849995479,42.19610229996033,42.19610229996033,42.19610229996033,42.19610229996033,42.19610229996033,43.19617669994477,43.19617669994477,43.53189610003028,x,1,0.3186009000055492,None,,,,,564955,001,2024-10-17_11h49.46.040,motor_sequence,2024.2.1post4,59.923908655285594,2024-10-17 11h50.02.882028 +0530,
50,c,18,2,4,c,1,0.34512930002529174,None,4,2,18,2,,,,,43.546393999946304,,43.53248599998187,43.546393999946304,44.54601249995176,44.54601249995176,44.54601249995176,44.54601249995176,44.54601249995176,45.546098400023766,45.546098400023766,45.8985859999666,c,1,0.34512930002529174,None,,,,,564955,001,2024-10-17_11h49.46.040,motor_sequence,2024.2.1post4,59.923908655285594,2024-10-17 11h50.02.882028 +0530,
150,v,19,3,4,v,1,0.2487017000094056,None,4,3,19,3,,,,,45.91276149998885,,45.89929510001093,45.91276149998885,46.91275769995991,46.91275769995991,46.91275769995991,46.91275769995991,46.91275769995991,47.91251940000802,47.91251940000802,48.16526009992231,v,1,0.2487017000094056,None,,,,,564955,001,2024-10-17_11h49.46.040,motor_sequence,2024.2.1post4,59.923908655285594,2024-10-17 11h50.02.882028 +0530,
-150,z,20,0,5,z,1,0.32535280007869005,None,5,0,20,0,,,,,48.17900459992234,,48.1657705999678,48.17900459992234,49.179103999980725,49.179103999980725,49.179103999980725,49.179103999980725,49.179103999980725,50.17837310000323,50.17837310000323,50.514409499941394,z,1,0.32535280007869005,None,,,,,564955,001,2024-10-17_11h49.46.040,motor_sequence,2024.2.1post4,59.923908655285594,2024-10-17 11h50.02.882028 +0530,
-50,x,21,1,5,x,1,0.40527259989175946,None,5,1,21,1,,,,,50.528863699990325,,50.51495879993308,50.528863699990325,51.528627699939534,51.528627699939534,51.528627699939534,51.528627699939534,51.528627699939534,52.52854670002125,52.52854670002125,52.947321499930695,x,1,0.40527259989175946,None,,,,,564955,001,2024-10-17_11h49.46.040,motor_sequence,2024.2.1post4,59.923908655285594,2024-10-17 11h50.02.882028 +0530,
50,c,22,2,5,c,1,0.4415682000108063,None,5,2,22,2,,,,,52.96161240001675,,52.94786519999616,52.96161240001675,53.96175849996507,53.96175849996507,53.96175849996507,53.96175849996507,53.96175849996507,54.961099199950695,54.961099199950695,55.41425449994858,c,1,0.4415682000108063,None,,,,,564955,001,2024-10-17_11h49.46.040,motor_sequence,2024.2.1post4,59.923908655285594,2024-10-17 11h50.02.882028 +0530,
150,v,23,3,5,v,1,0.31023990001995116,None,5,3,23,3,,,,,55.428032999974675,,55.41483559994958,55.428032999974675,56.42799210001249,56.42799210001249,56.42799210001249,56.42799210001249,56.42799210001249,57.427998399944045,57.427998399944045,57.74639749992639,v,1,0.31023990001995116,None,,,,,564955,001,2024-10-17_11h49.46.040,motor_sequence,2024.2.1post4,59.923908655285594,2024-10-17 11h50.02.882028 +0530,
-150,z,24,0,6,z,1,0.3743679999606684,None,6,0,24,0,,,,,57.76095509994775,,57.7468918999657,57.76095509994775,58.76117429998703,58.76117429998703,58.76117429998703,58.76117429998703,58.76117429998703,59.760837999987416,59.760837999987416,60.14668639993761,z,1,0.3743679999606684,None,,,,,564955,001,2024-10-17_11h49.46.040,motor_sequence,2024.2.1post4,59.923908655285594,2024-10-17 11h50.02.882028 +0530,
-50,x,25,1,6,x,1,0.33296550007071346,None,6,1,25,1,,,,,60.16078059992287,,60.14732979994733,60.16078059992287,61.160787599976175,61.160787599976175,61.160787599976175,61.160787599976175,61.160787599976175,62.16093429992907,62.16093429992907,62.49679439992178,x,1,0.33296550007071346,None,,,,,564955,001,2024-10-17_11h49.46.040,motor_sequence,2024.2.1post4,59.923908655285594,2024-10-17 11h50.02.882028 +0530,
50,c,26,2,6,c,1,0.3264164000283927,None,6,2,26,2,,,,,62.5107122999616,,62.497373900027014,62.5107122999616,63.51090390002355,63.51090390002355,63.51090390002355,63.51090390002355,63.51090390002355,64.509867799934,64.509867799934,64.84582669998053,c,1,0.3264164000283927,None,,,,,564955,001,2024-10-17_11h49.46.040,motor_sequence,2024.2.1post4,59.923908655285594,2024-10-17 11h50.02.882028 +0530,
150,v,27,3,6,v,1,1.2906846000114456,None,6,3,27,3,,,,,64.86036689998582,,64.84641420003027,64.86036689998582,65.86002289992757,65.86002289992757,65.86002289992757,65.86002289992757,65.86002289992757,66.86013229994569,66.86013229994569,68.16224590002093,v,1,1.2906846000114456,None,,,,,564955,001,2024-10-17_11h49.46.040,motor_sequence,2024.2.1post4,59.923908655285594,2024-10-17 11h50.02.882028 +0530,
-150,z,28,0,7,z,1,0.4862123999046162,None,7,0,28,0,,,,,68.1764251999557,,68.16280599997845,68.1764251999557,69.17635149997659,69.17635149997659,69.17635149997659,69.17635149997659,69.17635149997659,70.17641690000892,70.17641690000892,70.67870179994497,z,1,0.4862123999046162,None,,,,,564955,001,2024-10-17_11h49.46.040,motor_sequence,2024.2.1post4,59.923908655285594,2024-10-17 11h50.02.882028 +0530,
-50,x,29,1,7,x,1,0.34155550005380064,None,7,1,29,1,,,,,70.69283349998295,,70.67925369995646,70.69283349998295,71.69292539998423,71.69292539998423,71.69292539998423,71.69292539998423,71.69292539998423,72.67637829994783,72.67637829994783,73.0283493999159,x,1,0.34155550005380064,None,,,,,564955,001,2024-10-17_11h49.46.040,motor_sequence,2024.2.1post4,59.923908655285594,2024-10-17 11h50.02.882028 +0530,
50,c,30,2,7,c,1,0.4563145999563858,None,7,2,30,2,,,,,73.04254059994128,,73.02892880002037,73.04254059994128,74.04272329993546,74.04272329993546,74.04272329993546,74.04272329993546,74.04272329993546,75.04253109998535,75.04253109998535,75.51125420001335,c,1,0.4563145999563858,None,,,,,564955,001,2024-10-17_11h49.46.040,motor_sequence,2024.2.1post4,59.923908655285594,2024-10-17 11h50.02.882028 +0530,
150,v,31,3,7,v,1,0.43044580006971955,None,7,3,31,3,,,,,75.52549599995837,,75.5118625999894,75.52549599995837,76.5254421000136,76.5254421000136,76.5254421000136,76.5254421000136,76.5254421000136,77.5252447000239,77.5252447000239,77.96149869996589,v,1,0.43044580006971955,None,,,,,564955,001,2024-10-17_11h49.46.040,motor_sequence,2024.2.1post4,59.923908655285594,2024-10-17 11h50.02.882028 +0530,
-150,z,32,0,8,z,1,0.4019514999818057,None,8,0,32,0,,,,,77.975362499943,,77.96204799995758,77.975362499943,78.97500199999195,78.97500199999195,78.97500199999195,78.97500199999195,78.97500199999195,79.97487889998592,79.97487889998592,80.39397430000827,z,1,0.4019514999818057,None,,,,,564955,001,2024-10-17_11h49.46.040,motor_sequence,2024.2.1post4,59.923908655285594,2024-10-17 11h50.02.882028 +0530,
-50,x,33,1,8,x,1,0.48345489997882396,None,8,1,33,1,,,,,80.40823749999981,,80.39453859999776,80.40823749999981,81.40818269993179,81.40818269993179,81.40818269993179,81.40818269993179,81.40818269993179,82.40781519992743,82.40781519992743,82.89328299998306,x,1,0.48345489997882396,None,,,,,564955,001,2024-10-17_11h49.46.040,motor_sequence,2024.2.1post4,59.923908655285594,2024-10-17 11h50.02.882028 +0530,
50,c,34,2,8,c,1,0.43675410002470016,None,8,2,34,2,,,,,82.90737479995005,,82.89361189992633,82.90737479995005,83.90778559993487,83.90778559993487,83.90778559993487,83.90778559993487,83.90778559993487,84.90769399993587,84.90769399993587,85.35952339996584,c,1,0.43675410002470016,None,,,,,564955,001,2024-10-17_11h49.46.040,motor_sequence,2024.2.1post4,59.923908655285594,2024-10-17 11h50.02.882028 +0530,
150,v,35,3,8,v,1,0.4094512000447139,None,8,3,35,3,,,,,85.3745303999167,,85.36009989993181,85.3745303999167,86.37420919991564,86.37420919991564,86.37420919991564,86.37420919991564,86.37420919991564,87.37445869995281,87.37445869995281,87.7930033999728,v,1,0.4094512000447139,None,,,,,564955,001,2024-10-17_11h49.46.040,motor_sequence,2024.2.1post4,59.923908655285594,2024-10-17 11h50.02.882028 +0530,
-150,z,36,0,9,z,1,0.7176281000720337,None,9,0,36,0,,,,,87.807038799976,,87.79355279996525,87.807038799976,88.80747330002487,88.80747330002487,88.80747330002487,88.80747330002487,88.80747330002487,89.80719419999514,89.80719419999514,90.54242129996419,z,1,0.7176281000720337,None,,,,,564955,001,2024-10-17_11h49.46.040,motor_sequence,2024.2.1post4,59.923908655285594,2024-10-17 11h50.02.882028 +0530,
-50,x,37,1,9,x,1,0.34142889990471303,None,9,1,37,1,,,,,90.55710630002432,,90.54298479994759,90.55710630002432,91.55658430000767,91.55658430000767,91.55658430000767,91.55658430000767,91.55658430000767,92.5568568999879,92.5568568999879,92.90847329993267,x,1,0.34142889990471303,None,,,,,564955,001,2024-10-17_11h49.46.040,motor_sequence,2024.2.1post4,59.923908655285594,2024-10-17 11h50.02.882028 +0530,
50,c,38,2,9,c,1,0.30259730003308505,None,9,2,38,2,,,,,92.923526700004,,92.90893339994363,92.923526700004,93.92318869999144,93.92318869999144,93.92318869999144,93.92318869999144,93.92318869999144,94.92261929996312,94.92261929996312,95.24292989994865,c,1,0.30259730003308505,None,,,,,564955,001,2024-10-17_11h49.46.040,motor_sequence,2024.2.1post4,59.923908655285594,2024-10-17 11h50.02.882028 +0530,
150,v,39,3,9,v,1,0.41857109998818487,None,9,3,39,3,,,,,95.25653020001482,,95.2434581000125,95.25653020001482,96.25609669997357,96.25609669997357,96.25609669997357,96.25609669997357,96.25609669997357,97.25611029996071,97.25611029996071,97.69156419998035,v,1,0.41857109998818487,None,,,,,564955,001,2024-10-17_11h49.46.040,motor_sequence,2024.2.1post4,59.923908655285594,2024-10-17 11h50.02.882028 +0530,
-150,z,40,0,10,z,1,0.35294340003747493,None,10,0,40,0,,,,,97.70622860000003,,97.69211810000706,97.70622860000003,98.70601039996836,98.70601039996836,98.70601039996836,98.70601039996836,98.70601039996836,99.70598440000322,99.70598440000322,100.07433069997933,z,1,0.35294340003747493,None,,,,,564955,001,2024-10-17_11h49.46.040,motor_sequence,2024.2.1post4,59.923908655285594,2024-10-17 11h50.02.882028 +0530,
-50,x,41,1,10,x,1,0.23813120007980615,None,10,1,41,1,,,,,100.08856740000192,,100.07480079995003,100.08856740000192,101.08890169998631,101.08890169998631,101.08890169998631,101.08890169998631,101.08890169998631,102.08884410001338,102.08884410001338,102.34012539999094,x,1,0.23813120007980615,None,,,,,564955,001,2024-10-17_11h49.46.040,motor_sequence,2024.2.1post4,59.923908655285594,2024-10-17 11h50.02.882028 +0530,
50,c,42,2,10,c,1,0.3534609000198543,None,10,2,42,2,,,,,102.35506740002893,,102.34051749994978,102.35506740002893,103.35529430001043,103.35529430001043,103.35529430001043,103.35529430001043,103.35529430001043,104.355271599954,104.355271599954,104.72447349992581,c,1,0.3534609000198543,None,,,,,564955,001,2024-10-17_11h49.46.040,motor_sequence,2024.2.1post4,59.923908655285594,2024-10-17 11h50.02.882028 +0530,
150,v,43,3,10,v,1,0.6713065999792889,None,10,3,43,3,,,,,104.73838699993212,,104.72508200001903,104.73838699993212,105.73851219995413,105.73851219995413,105.73851219995413,105.73851219995413,105.73851219995413,106.73738419997972,106.73738419997972,107.42395349999424,v,1,0.6713065999792889,None,,,,,564955,001,2024-10-17_11h49.46.040,motor_sequence,2024.2.1post4,59.923908655285594,2024-10-17 11h50.02.882028 +0530,
-150,z,44,0,11,z,1,0.3405050999717787,None,11,0,44,0,,,,,107.43868849996943,,107.42455859994516,107.43868849996943,108.43883170001209,108.43883170001209,108.43883170001209,108.43883170001209,108.43883170001209,109.43836679996457,109.43836679996457,109.79096849996131,z,1,0.3405050999717787,None,,,,,564955,001,2024-10-17_11h49.46.040,motor_sequence,2024.2.1post4,59.923908655285594,2024-10-17 11h50.02.882028 +0530,
-50,x,45,1,11,x,1,0.31496220000553876,None,11,1,45,1,,,,,109.80701659992337,,109.79150609998032,109.80701659992337,110.80354100000113,110.80354100000113,110.80354100000113,110.80354100000113,110.82080440002028,111.80423979996704,111.80423979996704,112.12300070002675,x,1,0.31496220000553876,None,,,,,564955,001,2024-10-17_11h49.46.040,motor_sequence,2024.2.1post4,59.923908655285594,2024-10-17 11h50.02.882028 +0530,
50,c,46,2,11,c,1,0.34203999990131706,None,11,2,46,2,,,,,112.13763839995954,,112.12366619997192,112.13763839995954,113.13690669997595,113.13690669997595,113.13690669997595,113.13690669997595,113.13690669997595,114.13667659997009,114.13667659997009,114.48846559994854,c,1,0.34203999990131706,None,,,,,564955,001,2024-10-17_11h49.46.040,motor_sequence,2024.2.1post4,59.923908655285594,2024-10-17 11h50.02.882028 +0530,
150,v,47,3,11,v,1,0.43775339995045215,None,11,3,47,3,,,,,114.50382540002465,,114.48878529993817,114.50382540002465,115.48788749997038,115.48788749997038,115.48788749997038,115.48788749997038,115.50329379993491,116.50287989992648,116.50287989992648,116.9546814999776,v,1,0.43775339995045215,None,,,,,564955,001,2024-10-17_11h49.46.040,motor_sequence,2024.2.1post4,59.923908655285594,2024-10-17 11h50.02.882028 +0530,
-150,z,48,0,12,z,1,0.03933369996957481,None,12,0,48,0,,,,,116.96955869998783,,116.95499649993144,116.96955869998783,117.97097739996389,117.97097739996389,117.97097739996389,117.97097739996389,117.97097739996389,118.96913689991925,118.96913689991925,119.02129149995744,z,1,0.03933369996957481,None,,,,,564955,001,2024-10-17_11h49.46.040,motor_sequence,2024.2.1post4,59.923908655285594,2024-10-17 11h50.02.882028 +0530,
-50,x,49,1,12,x,1,0.3621820999542251,None,12,1,49,1,,,,,119.03671389992815,,119.02181459998246,119.03671389992815,120.03665569995064,120.03665569995064,120.03665569995064,120.03665569995064,120.03665569995064,121.03645329992287,121.03645329992287,121.40534850000404,x,1,0.3621820999542251,None,,,,,564955,001,2024-10-17_11h49.46.040,motor_sequence,2024.2.1post4,59.923908655285594,2024-10-17 11h50.02.882028 +0530,
50,c,50,2,12,c,1,0.2910072000231594,None,12,2,50,2,,,,,121.41972270002589,,121.40593419992365,121.41972270002589,122.4193663999904,122.4193663999904,122.4193663999904,122.4193663999904,122.4193663999904,123.41961460001767,123.41961460001767,123.72175549995154,c,1,0.2910072000231594,None,,,,,564955,001,2024-10-17_11h49.46.040,motor_sequence,2024.2.1post4,59.923908655285594,2024-10-17 11h50.02.882028 +0530,
150,v,51,3,12,v,1,0.39177580003160983,None,12,3,51,3,,,,,123.73560939996969,,123.72231889993418,123.73560939996969,124.73583969997708,124.73583969997708,124.73583969997708,124.73583969997708,124.73583969997708,125.73635139991529,125.73635139991529,126.13761490001343,v,1,0.39177580003160983,None,,,,,564955,001,2024-10-17_11h49.46.040,motor_sequence,2024.2.1post4,59.923908655285594,2024-10-17 11h50.02.882028 +0530,
-150,z,52,0,13,z,1,0.3328848999226466,None,13,0,52,0,,,,,126.15215799992438,,126.13819949992467,126.15215799992438,127.15272749995347,127.15272749995347,127.15272749995347,127.15272749995347,127.15272749995347,128.1523623999674,128.1523623999674,128.4880972999381,z,1,0.3328848999226466,None,,,,,564955,001,2024-10-17_11h49.46.040,motor_sequence,2024.2.1post4,59.923908655285594,2024-10-17 11h50.02.882028 +0530,
-50,x,53,1,13,x,1,0.3244113000109792,None,13,1,53,1,,,,,128.5022842999315,,128.48863249993883,128.5022842999315,129.5021751000313,129.5021751000313,129.5021751000313,129.5021751000313,129.5021751000313,130.50185489992145,130.50185489992145,130.83635929995216,x,1,0.3244113000109792,None,,,,,564955,001,2024-10-17_11h49.46.040,motor_sequence,2024.2.1post4,59.923908655285594,2024-10-17 11h50.02.882028 +0530,
50,c,54,2,13,c,1,0.3213205999927595,None,13,2,54,2,,,,,130.8515598999802,,130.83676169998944,130.8515598999802,131.85208079998847,131.85208079998847,131.85208079998847,131.85208079998847,131.85208079998847,132.85161339992192,132.85161339992192,133.1874705000082,c,1,0.3213205999927595,None,,,,,564955,001,2024-10-17_11h49.46.040,motor_sequence,2024.2.1post4,59.923908655285594,2024-10-17 11h50.02.882028 +0530,
150,v,55,3,13,v,1,0.2695136000402272,None,13,3,55,3,,,,,133.20161550003104,,133.18806339998264,133.20161550003104,134.20110730000306,134.20110730000306,134.20110730000306,134.20110730000306,134.20110730000306,135.2014269999927,135.2014269999927,135.48718279995956,v,1,0.2695136000402272,None,,,,,564955,001,2024-10-17_11h49.46.040,motor_sequence,2024.2.1post4,59.923908655285594,2024-10-17 11h50.02.882028 +0530,
-150,z,56,0,14,z,1,0.41232090000994503,None,14,0,56,0,,,,,135.50122139998712,,135.48776439996436,135.50122139998712,136.5010587000288,136.5010587000288,136.5010587000288,136.5010587000288,136.5010587000288,137.50100859999657,137.50100859999657,137.92066790000536,z,1,0.41232090000994503,None,,,,,564955,001,2024-10-17_11h49.46.040,motor_sequence,2024.2.1post4,59.923908655285594,2024-10-17 11h50.02.882028 +0530,
-50,x,57,1,14,x,1,0.2889677999773994,None,14,1,57,1,,,,,137.9344363999553,,137.9212568999501,137.9344363999553,138.93415510002524,138.93415510002524,138.93415510002524,138.93415510002524,138.93415510002524,139.93385229993146,139.93385229993146,140.23557799996343,x,1,0.2889677999773994,None,,,,,564955,001,2024-10-17_11h49.46.040,motor_sequence,2024.2.1post4,59.923908655285594,2024-10-17 11h50.02.882028 +0530,
50,c,58,2,14,c,1,0.25137950002681464,None,14,2,58,2,,,,,140.25151139998343,,140.23610159999225,140.25151139998343,141.25064719992224,141.25064719992224,141.25064719992224,141.25064719992224,141.26721499999985,142.25047819991596,142.25047819991596,142.5195050999755,c,1,0.25137950002681464,None,,,,,564955,001,2024-10-17_11h49.46.040,motor_sequence,2024.2.1post4,59.923908655285594,2024-10-17 11h50.02.882028 +0530,
150,v,59,3,14,v,1,0.317584199947305,None,14,3,59,3,,,,,142.53363610000815,,142.5200783999171,142.53363610000815,143.53346099995542,143.53346099995542,143.53346099995542,143.53346099995542,143.53346099995542,144.53325520001817,144.53325520001817,144.86838469991926,v,1,0.317584199947305,None,,,,,564955,001,2024-10-17_11h49.46.040,motor_sequence,2024.2.1post4,59.923908655285594,2024-10-17 11h50.02.882028 +0530,
-150,z,60,0,15,z,1,0.36271150002721697,None,15,0,60,0,,,,,144.88361959997565,,144.8688466999447,144.88361959997565,145.88323959999252,145.88323959999252,145.88323959999252,145.88323959999252,145.88323959999252,146.88321549992543,146.88321549992543,147.25235989992507,z,1,0.36271150002721697,None,,,,,564955,001,2024-10-17_11h49.46.040,motor_sequence,2024.2.1post4,59.923908655285594,2024-10-17 11h50.02.882028 +0530,
-50,x,61,1,15,x,1,0.3851361999986693,None,15,1,61,1,,,,,147.26719369995408,,147.25298969994765,147.26719369995408,148.26654620002955,148.26654620002955,148.26654620002955,148.26654620002955,148.2834333999781,149.26605029997882,149.26605029997882,149.66820740001276,x,1,0.3851361999986693,None,,,,,564955,001,2024-10-17_11h49.46.040,motor_sequence,2024.2.1post4,59.923908655285594,2024-10-17 11h50.02.882028 +0530,
50,c,62,2,15,c,1,0.34691469999961555,None,15,2,62,2,,,,,149.68281609995756,,149.6687752000289,149.68281609995756,150.68262019997928,150.68262019997928,150.68262019997928,150.68262019997928,150.68262019997928,151.68261399993207,151.68261399993207,152.03492859995458,c,1,0.34691469999961555,None,,,,,564955,001,2024-10-17_11h49.46.040,motor_sequence,2024.2.1post4,59.923908655285594,2024-10-17 11h50.02.882028 +0530,
150,v,63,3,15,v,1,0.4000638999277726,None,15,3,63,3,,,,,152.04909220000263,,152.035460999934,152.04909220000263,153.04924189997837,153.04924189997837,153.04924189997837,153.04924189997837,153.04924189997837,154.04889729991555,154.04889729991555,154.45165639999323,v,1,0.4000638999277726,None,,,,,564955,001,2024-10-17_11h49.46.040,motor_sequence,2024.2.1post4,59.923908655285594,2024-10-17 11h50.02.882028 +0530,
-150,z,64,0,16,z,1,0.5925147000234574,None,16,0,64,0,,,,,154.46560689993203,,154.4523989999434,154.46560689993203,155.46534280001651,155.46534280001651,155.46534280001651,155.46534280001651,155.46534280001651,156.46492389997002,156.46492389997002,157.06829049997032,z,1,0.5925147000234574,None,,,,,564955,001,2024-10-17_11h49.46.040,motor_sequence,2024.2.1post4,59.923908655285594,2024-10-17 11h50.02.882028 +0530,
-50,x,65,1,16,x,1,0.43630219995975494,None,16,1,65,1,,,,,157.0815287999576,,157.06882439996116,157.0815287999576,158.0817323999945,158.0817323999945,158.0817323999945,158.0817323999945,158.0817323999945,159.08181869995315,159.08181869995315,159.53371809993405,x,1,0.43630219995975494,None,,,,,564955,001,2024-10-17_11h49.46.040,motor_sequence,2024.2.1post4,59.923908655285594,2024-10-17 11h50.02.882028 +0530,
50,c,66,2,16,c,1,0.291564799961634,None,16,2,66,2,,,,,159.5479538999498,,159.53432590002194,159.5479538999498,160.54739979992155,160.54739979992155,160.54739979992155,160.54739979992155,160.54739979992155,161.5476111000171,161.5476111000171,161.84946960001253,c,1,0.291564799961634,None,,,,,564955,001,2024-10-17_11h49.46.040,motor_sequence,2024.2.1post4,59.923908655285594,2024-10-17 11h50.02.882028 +0530,
150,v,67,3,16,v,1,0.2664154999656603,None,16,3,67,3,,,,,161.86466159997508,,161.84984629997052,161.86466159997508,162.8645807999419,162.8645807999419,162.8645807999419,162.8645807999419,162.8645807999419,163.86438719998114,163.86438719998114,164.13409960002173,v,1,0.2664154999656603,None,,,,,564955,001,2024-10-17_11h49.46.040,motor_sequence,2024.2.1post4,59.923908655285594,2024-10-17 11h50.02.882028 +0530,
-150,z,68,0,17,z,1,0.3919880000175908,None,17,0,68,0,,,,,164.14787609991618,,164.13465999998152,164.14787609991618,165.1474964999361,165.1474964999361,165.1474964999361,165.1474964999361,165.1474964999361,166.14744420000352,166.14744420000352,166.54990949993953,z,1,0.3919880000175908,None,,,,,564955,001,2024-10-17_11h49.46.040,motor_sequence,2024.2.1post4,59.923908655285594,2024-10-17 11h50.02.882028 +0530,
-50,x,69,1,17,x,1,0.2847135999472812,None,17,1,69,1,,,,,166.563872299972,,166.5506355999969,166.563872299972,167.56386100000236,167.56386100000236,167.56386100000236,167.56386100000236,167.56386100000236,168.56351759994868,168.56351759994868,168.86544309998862,x,1,0.2847135999472812,None,,,,,564955,001,2024-10-17_11h49.46.040,motor_sequence,2024.2.1post4,59.923908655285594,2024-10-17 11h50.02.882028 +0530,
50,c,70,2,17,c,1,0.3657417999347672,None,17,2,70,2,,,,,168.88012260000687,,168.8659719999414,168.88012260000687,169.88008789997548,169.88008789997548,169.88008789997548,169.88008789997548,169.88008789997548,170.88023699994665,170.88023699994665,171.2489267999772,c,1,0.3657417999347672,None,,,,,564955,001,2024-10-17_11h49.46.040,motor_sequence,2024.2.1post4,59.923908655285594,2024-10-17 11h50.02.882028 +0530,
150,v,71,3,17,v,1,0.3324943999759853,None,17,3,71,3,,,,,171.2632490999531,,171.24949979991652,171.2632490999531,172.26330879994202,172.26330879994202,172.26330879994202,172.26330879994202,172.26330879994202,173.2635790000204,173.2635790000204,173.59863609995227,v,1,0.3324943999759853,None,,,,,564955,001,2024-10-17_11h49.46.040,motor_sequence,2024.2.1post4,59.923908655285594,2024-10-17 11h50.02.882028 +0530,
-150,z,72,0,18,z,1,0.32097930007148534,None,18,0,72,0,,,,,173.61294140003156,,173.59926950000226,173.61294140003156,174.61290720000397,174.61290720000397,174.61290720000397,174.61290720000397,174.61290720000397,175.61274599994067,175.61274599994067,175.9484991999343,z,1,0.32097930007148534,None,,,,,564955,001,2024-10-17_11h49.46.040,motor_sequence,2024.2.1post4,59.923908655285594,2024-10-17 11h50.02.882028 +0530,
-50,x,73,1,18,x,1,0.3057867999887094,None,18,1,73,1,,,,,175.96300270000938,,175.9491159999743,175.96300270000938,176.96268599992618,176.96268599992618,176.96268599992618,176.96268599992618,176.96268599992618,177.96278489998076,177.96278489998076,178.28015719994437,x,1,0.3057867999887094,None,,,,,564955,001,2024-10-17_11h49.46.040,motor_sequence,2024.2.1post4,59.923908655285594,2024-10-17 11h50.02.882028 +0530,
50,c,74,2,18,c,1,0.31825040001422167,None,18,2,74,2,,,,,178.2955712999683,,178.28055629995652,178.2955712999683,179.2956886999309,179.2956886999309,179.2956886999309,179.2956886999309,179.2956886999309,180.2955796000315,180.2955796000315,180.63036539999302,c,1,0.31825040001422167,None,,,,,564955,001,2024-10-17_11h49.46.040,motor_sequence,2024.2.1post4,59.923908655285594,2024-10-17 11h50.02.882028 +0530,
150,v,75,3,18,v,1,0.2911812999518588,None,18,3,75,3,,,,,180.64531239995267,,180.63086829998065,180.64531239995267,181.64550899993628,181.64550899993628,181.64550899993628,181.64550899993628,181.64550899993628,182.64507520000916,182.64507520000916,182.946670299978,v,1,0.2911812999518588,None,,,,,564955,001,2024-10-17_11h49.46.040,motor_sequence,2024.2.1post4,59.923908655285594,2024-10-17 11h50.02.882028 +0530,
-150,z,76,0,19,z,1,0.2988539000507444,None,19,0,76,0,,,,,182.96170240000356,,182.94709889998194,182.96170240000356,183.96153510001022,183.96153510001022,183.96153510001022,183.96153510001022,183.96153510001022,184.96131949999835,184.96131949999835,185.26423159998376,z,1,0.2988539000507444,None,,,,,564955,001,2024-10-17_11h49.46.040,motor_sequence,2024.2.1post4,59.923908655285594,2024-10-17 11h50.02.882028 +0530,
-50,x,77,1,19,x,1,0.2971723999362439,None,19,1,77,1,,,,,185.27830579993315,,185.2647444999311,185.27830579993315,186.27807479992043,186.27807479992043,186.27807479992043,186.27807479992043,186.27807479992043,187.27756499999668,187.27756499999668,187.57987959997263,x,1,0.2971723999362439,None,,,,,564955,001,2024-10-17_11h49.46.040,motor_sequence,2024.2.1post4,59.923908655285594,2024-10-17 11h50.02.882028 +0530,
50,c,78,2,19,c,1,0.30210720002651215,None,19,2,78,2,,,,,187.59491420001723,,187.58042749995366,187.59491420001723,188.5944721000269,188.5944721000269,188.5944721000269,188.5944721000269,188.5944721000269,189.5946666999953,189.5946666999953,189.91301899997052,c,1,0.30210720002651215,None,,,,,564955,001,2024-10-17_11h49.46.040,motor_sequence,2024.2.1post4,59.923908655285594,2024-10-17 11h50.02.882028 +0530,
150,v,79,3,19,v,1,0.3308027000166476,None,19,3,79,3,,,,,189.92760019993875,,189.91356639994774,189.92760019993875,190.92755519994535,190.92755519994535,190.92755519994535,190.92755519994535,190.92755519994535,191.92726030002814,191.92726030002814,192.26291779999156,v,1,0.3308027000166476,None,,,,,564955,001,2024-10-17_11h49.46.040,motor_sequence,2024.2.1post4,59.923908655285594,2024-10-17 11h50.02.882028 +0530,
-150,z,80,0,20,z,1,0.3503908000420779,None,20,0,80,0,,,,,192.2771544000134,,192.2634174999548,192.2771544000134,193.27724840003066,193.27724840003066,193.27724840003066,193.27724840003066,193.27724840003066,194.2772394999629,194.2772394999629,194.6305237999186,z,1,0.3503908000420779,None,,,,,564955,001,2024-10-17_11h49.46.040,motor_sequence,2024.2.1post4,59.923908655285594,2024-10-17 11h50.02.882028 +0530,
-50,x,81,1,20,x,1,0.33562779997009784,None,20,1,81,1,,,,,194.6437265999848,,194.63108919991646,194.6437265999848,195.64369799999986,195.64369799999986,195.64369799999986,195.64369799999986,195.64369799999986,196.64354219997767,196.64354219997767,196.9956352999434,x,1,0.33562779997009784,None,,,,,564955,001,2024-10-17_11h49.46.040,motor_sequence,2024.2.1post4,59.923908655285594,2024-10-17 11h50.02.882028 +0530,
50,c,82,2,20,c,1,0.3990322999889031,None,20,2,82,2,,,,,197.01008039992303,,196.99621170002501,197.01008039992303,198.00994909997098,198.00994909997098,198.00994909997098,198.00994909997098,198.00994909997098,199.00990860001184,199.00990860001184,199.41209999995772,c,1,0.3990322999889031,None,,,,,564955,001,2024-10-17_11h49.46.040,motor_sequence,2024.2.1post4,59.923908655285594,2024-10-17 11h50.02.882028 +0530,
150,v,83,3,20,v,1,0.2832455999450758,None,20,3,83,3,,,,,199.4262974000303,,199.41271910001524,199.4262974000303,200.42629420000594,200.42629420000594,200.42629420000594,200.42629420000594,200.42629420000594,201.42582969996147,201.42582969996147,201.7119715999579,v,1,0.2832455999450758,None,,,,,564955,001,2024-10-17_11h49.46.040,motor_sequence,2024.2.1post4,59.923908655285594,2024-10-17 11h50.02.882028 +0530,
-150,z,84,0,21,z,1,0.9660479000303894,None,21,0,84,0,,,,,201.72600429994054,,201.7124152999604,201.72600429994054,202.72486720001325,202.72486720001325,202.72486720001325,202.72486720001325,202.72486720001325,203.7255526999943,203.7255526999943,204.6947032000171,z,1,0.9660479000303894,None,,,,,564955,001,2024-10-17_11h49.46.040,motor_sequence,2024.2.1post4,59.923908655285594,2024-10-17 11h50.02.882028 +0530,
-50,x,85,1,21,x,1,0.3899771000724286,None,21,1,85,1,,,,,204.70946209994145,,204.6952322999714,204.70946209994145,205.70897689997219,205.70897689997219,205.70897689997219,205.70897689997219,205.70897689997219,206.70867419999558,206.70867419999558,207.11101130000316,x,1,0.3899771000724286,None,,,,,564955,001,2024-10-17_11h49.46.040,motor_sequence,2024.2.1post4,59.923908655285594,2024-10-17 11h50.02.882028 +0530,
50,c,86,2,21,c,1,0.34105429996270686,None,21,2,86,2,,,,,207.12534429994412,,207.1115606999956,207.12534429994412,208.12526869995054,208.12526869995054,208.12526869995054,208.12526869995054,208.12526869995054,209.1252356999321,209.1252356999321,209.47688530001324,c,1,0.34105429996270686,None,,,,,564955,001,2024-10-17_11h49.46.040,motor_sequence,2024.2.1post4,59.923908655285594,2024-10-17 11h50.02.882028 +0530,
150,v,87,3,21,v,1,0.3420537000056356,None,21,3,87,3,,,,,209.4913432999747,,209.47718439996243,209.4913432999747,210.49167919997126,210.49167919997126,210.49167919997126,210.49167919997126,210.49167919997126,211.49142670002766,211.49142670002766,211.8438218999654,v,1,0.3420537000056356,None,,,,,564955,001,2024-10-17_11h49.46.040,motor_sequence,2024.2.1post4,59.923908655285594,2024-10-17 11h50.02.882028 +0530,
-150,z,88,0,22,z,1,0.42218120000325143,None,22,0,88,0,,,,,211.85830850002822,,211.84432179993019,211.85830850002822,212.85801879991777,212.85801879991777,212.85801879991777,212.85801879991777,212.85801879991777,213.85812350001652,213.85812350001652,214.29323930002283,z,1,0.42218120000325143,None,,,,,564955,001,2024-10-17_11h49.46.040,motor_sequence,2024.2.1post4,59.923908655285594,2024-10-17 11h50.02.882028 +0530,
-50,x,89,1,22,x,1,0.33220910001546144,None,22,1,89,1,,,,,214.30758749996312,,214.29381249996368,214.30758749996312,215.30744070000947,215.30744070000947,215.30744070000947,215.30744070000947,215.30744070000947,216.30747120000888,216.30747120000888,216.64300509996247,x,1,0.33220910001546144,None,,,,,564955,001,2024-10-17_11h49.46.040,motor_sequence,2024.2.1post4,59.923908655285594,2024-10-17 11h50.02.882028 +0530,
50,c,90,2,22,c,1,0.5108005000511184,None,22,2,90,2,,,,,216.65776939992793,,216.6435591999907,216.65776939992793,217.6573601999553,217.6573601999553,217.6573601999553,217.6573601999553,217.6573601999553,218.65754199994262,218.65754199994262,219.1764651000267,c,1,0.5108005000511184,None,,,,,564955,001,2024-10-17_11h49.46.040,motor_sequence,2024.2.1post4,59.923908655285594,2024-10-17 11h50.02.882028 +0530,
150,v,91,3,22,v,1,0.32900990010239184,None,22,3,91,3,,,,,219.19032880000304,,219.1771904999623,219.19032880000304,220.19047369994223,220.19047369994223,220.19047369994223,220.19047369994223,220.19047369994223,221.19129739992786,221.19129739992786,221.5253758999752,v,1,0.32900990010239184,None,,,,,564955,001,2024-10-17_11h49.46.040,motor_sequence,2024.2.1post4,59.923908655285594,2024-10-17 11h50.02.882028 +0530,
-150,z,92,0,23,z,1,0.3316485999384895,None,23,0,92,0,,,,,221.54003289993852,,221.5258148999419,221.54003289993852,222.54011149995495,222.54011149995495,222.54011149995495,222.54011149995495,222.54011149995495,223.54003159992862,223.54003159992862,223.87544750003144,z,1,0.3316485999384895,None,,,,,564955,001,2024-10-17_11h49.46.040,motor_sequence,2024.2.1post4,59.923908655285594,2024-10-17 11h50.02.882028 +0530,
-50,x,93,1,23,x,1,0.42099939996842295,None,23,1,93,1,,,,,223.8901874999283,,223.87600970000494,223.8901874999283,224.88971779996064,224.88971779996064,224.88971779996064,224.88971779996064,224.88971779996064,225.88956519996282,225.88956519996282,226.32507419993635,x,1,0.42099939996842295,None,,,,,564955,001,2024-10-17_11h49.46.040,motor_sequence,2024.2.1post4,59.923908655285594,2024-10-17 11h50.02.882028 +0530,
50,c,94,2,23,c,1,0.3254692000336945,None,23,2,94,2,,,,,226.33971530001145,,226.32562789996155,226.33971530001145,227.3384442999959,227.3384442999959,227.3384442999959,227.3384442999959,227.3384442999959,228.3395500999177,228.3395500999177,228.67539769993164,c,1,0.3254692000336945,None,,,,,564955,001,2024-10-17_11h49.46.040,motor_sequence,2024.2.1post4,59.923908655285594,2024-10-17 11h50.02.882028 +0530,
150,v,95,3,23,v,1,0.48353369999676943,None,23,3,95,3,,,,,228.689280499937,,228.67597630003002,228.689280499937,229.6892799999332,229.6892799999332,229.6892799999332,229.6892799999332,229.6892799999332,230.68905669997912,230.68905669997912,231.17511459998786,v,1,0.48353369999676943,None,,,,,564955,001,2024-10-17_11h49.46.040,motor_sequence,2024.2.1post4,59.923908655285594,2024-10-17 11h50.02.882028 +0530,
-150,z,96,0,24,z,1,0.4396632999414578,None,24,0,96,0,,,,,231.18885869998485,,231.17572830000427,231.18885869998485,232.18873920000624,232.18873920000624,232.18873920000624,232.18873920000624,232.18873920000624,233.18845140002668,233.18845140002668,233.6408890999155,z,1,0.4396632999414578,None,,,,,564955,001,2024-10-17_11h49.46.040,motor_sequence,2024.2.1post4,59.923908655285594,2024-10-17 11h50.02.882028 +0530,
-50,x,97,1,24,x,1,0.3495288999984041,None,24,1,97,1,,,,,233.65529419993982,,233.64145130000543,233.65529419993982,234.65524350001942,234.65524350001942,234.65524350001942,234.65524350001942,234.65524350001942,235.65518989996053,235.65518989996053,236.0073261000216,x,1,0.3495288999984041,None,,,,,564955,001,2024-10-17_11h49.46.040,motor_sequence,2024.2.1post4,59.923908655285594,2024-10-17 11h50.02.882028 +0530,
50,c,98,2,24,c,1,0.34394100005738437,None,24,2,98,2,,,,,236.0215029999381,,236.0079051000066,236.0215029999381,237.02165080001578,237.02165080001578,237.02165080001578,237.02165080001578,237.02165080001578,238.02149219997227,238.02149219997227,238.3727963999845,c,1,0.34394100005738437,None,,,,,564955,001,2024-10-17_11h49.46.040,motor_sequence,2024.2.1post4,59.923908655285594,2024-10-17 11h50.02.882028 +0530,
150,v,99,3,24,v,1,0.3725228999974206,None,24,3,99,3,,,,,238.387794499984,,238.37325339997187,238.387794499984,239.38782850001007,239.38782850001007,239.38782850001007,239.38782850001007,239.38782850001007,240.387725199922,240.387725199922,240.7735890999902,v,1,0.3725228999974206,None,,,,,564955,001,2024-10-17_11h49.46.040,motor_sequence,2024.2.1post4,59.923908655285594,2024-10-17 11h50.02.882028 +0530,
-150,z,100,0,25,z,1,0.47758669999893755,None,25,0,100,0,,,,,240.78784399991855,,240.7741420000093,240.78784399991855,241.7877174000023,241.7877174000023,241.7877174000023,241.7877174000023,241.7877174000023,242.78786889999174,242.78786889999174,243.27303769998252,z,1,0.47758669999893755,None,,,,,564955,001,2024-10-17_11h49.46.040,motor_sequence,2024.2.1post4,59.923908655285594,2024-10-17 11h50.02.882028 +0530,
-50,x,101,1,25,x,1,0.3029639999149367,None,25,1,101,1,,,,,243.28750540001784,,243.2736212000018,243.28750540001784,244.28730620001443,244.28730620001443,244.28730620001443,244.28730620001443,244.28730620001443,245.28737069992349,245.28737069992349,245.6062616999261,x,1,0.3029639999149367,None,,,,,564955,001,2024-10-17_11h49.46.040,motor_sequence,2024.2.1post4,59.923908655285594,2024-10-17 11h50.02.882028 +0530,
50,c,102,2,25,c,1,0.37789860006887466,None,25,2,102,2,,,,,245.62025089992676,,245.60682350001298,245.62025089992676,246.6204220999498,246.6204220999498,246.6204220999498,246.6204220999498,246.6204220999498,247.62020769994706,247.62020769994706,248.00639739993494,c,1,0.37789860006887466,None,,,,,564955,001,2024-10-17_11h49.46.040,motor_sequence,2024.2.1post4,59.923908655285594,2024-10-17 11h50.02.882028 +0530,
150,v,103,3,25,v,1,0.45544629998039454,None,25,3,103,3,,,,,248.0204843999818,,248.00698830001056,248.0204843999818,249.02020359993912,249.02020359993912,249.02020359993912,249.02020359993912,249.02020359993912,250.02002970001195,250.02002970001195,250.48840169992764,v,1,0.45544629998039454,None,,,,,564955,001,2024-10-17_11h49.46.040,motor_sequence,2024.2.1post4,59.923908655285594,2024-10-17 11h50.02.882028 +0530,
-150,z,104,0,26,z,1,0.4924161999952048,None,26,0,104,0,,,,,250.50283210002817,,250.48869689996354,250.50283210002817,251.50317009992432,251.50317009992432,251.50317009992432,251.50317009992432,251.50317009992432,252.5030068999622,252.5030068999622,253.00536950002424,z,1,0.4924161999952048,None,,,,,564955,001,2024-10-17_11h49.46.040,motor_sequence,2024.2.1post4,59.923908655285594,2024-10-17 11h50.02.882028 +0530,
-50,x,105,1,26,x,1,0.33582519995979965,None,26,1,105,1,,,,,253.0197690000059,,253.00594609999098,253.0197690000059,254.01963410002645,254.01963410002645,254.01963410002645,254.01963410002645,254.01963410002645,255.0193930999376,255.0193930999376,255.37108069995884,x,1,0.33582519995979965,None,,,,,564955,001,2024-10-17_11h49.46.040,motor_sequence,2024.2.1post4,59.923908655285594,2024-10-17 11h50.02.882028 +0530,
50,c,106,2,26,c,1,0.34856389998458326,None,26,2,106,2,,,,,255.3853699999163,,255.37163950002287,255.3853699999163,256.38582879991736,256.38582879991736,256.38582879991736,256.38582879991736,256.38582879991736,257.38577039993834,257.38577039993834,257.7385572999483,c,1,0.34856389998458326,None,,,,,564955,001,2024-10-17_11h49.46.040,motor_sequence,2024.2.1post4,59.923908655285594,2024-10-17 11h50.02.882028 +0530,
150,v,107,3,26,v,1,0.3268901000265032,None,26,3,107,3,,,,,257.7519398999866,,257.739084300003,257.7519398999866,258.7521898000268,258.7521898000268,258.7521898000268,258.7521898000268,258.7521898000268,259.75217009999324,259.75217009999324,260.0876551999245,v,1,0.3268901000265032,None,,,,,564955,001,2024-10-17_11h49.46.040,motor_sequence,2024.2.1post4,59.923908655285594,2024-10-17 11h50.02.882028 +0530,
-150,z,108,0,27,z,1,0.38117109995801,None,27,0,108,0,,,,,260.10203740000725,,260.08822549995966,260.10203740000725,261.1019984999439,261.1019984999439,261.1019984999439,261.1019984999439,261.1019984999439,262.10184409993235,262.10184409993235,262.48754449991975,z,1,0.38117109995801,None,,,,,564955,001,2024-10-17_11h49.46.040,motor_sequence,2024.2.1post4,59.923908655285594,2024-10-17 11h50.02.882028 +0530,
-50,x,109,1,27,x,1,0.8292923000408337,None,27,1,109,1,,,,,262.50153889996,,262.4881081000203,262.50153889996,263.5015325000277,263.5015325000277,263.5015325000277,263.5015325000277,263.5015325000277,264.50136160000693,264.50136160000693,265.337101800018,x,1,0.8292923000408337,None,,,,,564955,001,2024-10-17_11h49.46.040,motor_sequence,2024.2.1post4,59.923908655285594,2024-10-17 11h50.02.882028 +0530,
50,c,110,2,27,c,1,0.4023914000717923,None,27,2,110,2,,,,,265.3514301999239,,265.3376661000075,265.3514301999239,266.351264399942,266.351264399942,266.351264399942,266.351264399942,266.351264399942,267.3510638999287,267.3510638999287,267.7698579999851,c,1,0.4023914000717923,None,,,,,564955,001,2024-10-17_11h49.46.040,motor_sequence,2024.2.1post4,59.923908655285594,2024-10-17 11h50.02.882028 +0530,
150,v,111,3,27,v,1,0.34705940005369484,None,27,3,111,3,,,,,267.78406720003113,,267.7704757999163,267.78406720003113,268.78413409995846,268.78413409995846,268.78413409995846,268.78413409995846,268.78413409995846,269.7838257999392,269.7838257999392,270.136790700024,v,1,0.34705940005369484,None,,,,,564955,001,2024-10-17_11h49.46.040,motor_sequence,2024.2.1post4,59.923908655285594,2024-10-17 11h50.02.882028 +0530,
-150,z,112,0,28,z,1,0.44675040000583977,None,28,0,112,0,,,,,270.15081999998074,,270.13751989998855,270.15081999998074,271.1507229999406,271.1507229999406,271.1507229999406,271.1507229999406,271.1507229999406,272.15000699996017,272.15000699996017,272.602782699978,z,1,0.44675040000583977,None,,,,,564955,001,2024-10-17_11h49.46.040,motor_sequence,2024.2.1post4,59.923908655285594,2024-10-17 11h50.02.882028 +0530,
-50,x,113,1,28,x,1,0.2804667999735102,None,28,1,113,1,,,,,272.6169426999986,,272.603326399927,272.6169426999986,273.6170634999871,273.6170634999871,273.6170634999871,273.6170634999871,273.6170634999871,274.61692970001604,274.61692970001604,274.9024968999438,x,1,0.2804667999735102,None,,,,,564955,001,2024-10-17_11h49.46.040,motor_sequence,2024.2.1post4,59.923908655285594,2024-10-17 11h50.02.882028 +0530,
50,c,114,2,28,c,1,0.3452248000539839,None,28,2,114,2,,,,,274.91675779991783,,274.9030623999424,274.91675779991783,275.9165281999158,275.9165281999158,275.9165281999158,275.9165281999158,275.9165281999158,276.9165224999888,276.9165224999888,277.2684784999583,c,1,0.3452248000539839,None,,,,,564955,001,2024-10-17_11h49.46.040,motor_sequence,2024.2.1post4,59.923908655285594,2024-10-17 11h50.02.882028 +0530,
150,v,115,3,28,v,1,0.3920546999434009,None,28,3,115,3,,,,,277.2830048999749,,277.26901549997274,277.2830048999749,278.2828920999309,278.2828920999309,278.2828920999309,278.2828920999309,278.2828920999309,279.28310370002873,279.28310370002873,279.68554550001863,v,1,0.3920546999434009,None,,,,,564955,001,2024-10-17_11h49.46.040,motor_sequence,2024.2.1post4,59.923908655285594,2024-10-17 11h50.02.882028 +0530,
-150,z,116,0,29,z,1,0.3888625999679789,None,29,0,116,0,,,,,279.6996347999666,,279.68606729991734,279.6996347999666,280.6989591999445,280.6989591999445,280.6989591999445,280.6989591999445,280.6989591999445,281.69922219996806,281.69922219996806,282.10133959993254,z,1,0.3888625999679789,None,,,,,564955,001,2024-10-17_11h49.46.040,motor_sequence,2024.2.1post4,59.923908655285594,2024-10-17 11h50.02.882028 +0530,
-50,x,117,1,29,x,1,0.35177499998826534,None,29,1,117,1,,,,,282.11597759998403,,282.10193260002416,282.11597759998403,283.11569090001285,283.11569090001285,283.11569090001285,283.11569090001285,283.11569090001285,284.11557259992696,284.11557259992696,284.48453789995983,x,1,0.35177499998826534,None,,,,,564955,001,2024-10-17_11h49.46.040,motor_sequence,2024.2.1post4,59.923908655285594,2024-10-17 11h50.02.882028 +0530,
50,c,118,2,29,c,1,0.7032149999868125,None,29,2,118,2,,,,,284.4989825999364,,284.4851135999197,284.4989825999364,285.4987343000248,285.4987343000248,285.4987343000248,285.4987343000248,285.4987343000248,286.49855309992563,286.49855309992563,287.21745929995086,c,1,0.7032149999868125,None,,,,,564955,001,2024-10-17_11h49.46.040,motor_sequence,2024.2.1post4,59.923908655285594,2024-10-17 11h50.02.882028 +0530,
150,v,119,3,29,v,1,0.40879819996189326,None,29,3,119,3,,,,,287.23202280001715,,287.218405899941,287.23202280001715,288.2319937000284,288.2319937000284,288.2319937000284,288.2319937000284,288.2319937000284,289.23185229999945,289.23185229999945,289.6503581999568,v,1,0.40879819996189326,None,,,,,564955,001,2024-10-17_11h49.46.040,motor_sequence,2024.2.1post4,59.923908655285594,2024-10-17 11h50.02.882028 +0530,
-150,z,120,0,30,z,1,0.6402983999578282,None,30,0,120,0,,,,,289.6648476999253,,289.6511737999972,289.6648476999253,290.66466599993873,290.66466599993873,290.66466599993873,290.66466599993873,290.66466599993873,291.6647225000197,291.6647225000197,292.31667570001446,z,1,0.6402983999578282,None,,,,,564955,001,2024-10-17_11h49.46.040,motor_sequence,2024.2.1post4,59.923908655285594,2024-10-17 11h50.02.882028 +0530,
-50,x,121,1,30,x,1,0.4807032000971958,None,30,1,121,1,,,,,292.3306920999894,,292.31723970000166,292.3306920999894,293.33114389993716,293.33114389993716,293.33114389993716,293.33114389993716,293.33114389993716,294.3311547000194,294.3311547000194,294.8168788999319,x,1,0.4807032000971958,None,,,,,564955,001,2024-10-17_11h49.46.040,motor_sequence,2024.2.1post4,59.923908655285594,2024-10-17 11h50.02.882028 +0530,
50,c,122,2,30,c,1,0.4048845999641344,None,30,2,122,2,,,,,294.8303020999301,,294.8173475000076,294.8303020999301,295.8304460999789,295.8304460999789,295.8304460999789,295.8304460999789,295.8304460999789,296.8307731000241,296.8307731000241,297.24834579997696,c,1,0.4048845999641344,None,,,,,564955,001,2024-10-17_11h49.46.040,motor_sequence,2024.2.1post4,59.923908655285594,2024-10-17 11h50.02.882028 +0530,
150,v,123,3,30,v,1,0.9210511000128463,None,30,3,123,3,,,,,297.2636265999172,,297.2487968999194,297.2636265999172,298.263787999982,298.263787999982,298.263787999982,298.263787999982,298.263787999982,299.2636296999408,299.2636296999408,300.19936969992705,v,1,0.9210511000128463,None,,,,,564955,001,2024-10-17_11h49.46.040,motor_sequence,2024.2.1post4,59.923908655285594,2024-10-17 11h50.02.882028 +0530,
-150,z,124,0,31,z,1,1.0754148000851274,None,31,0,124,0,,,,,300.21361209999304,,300.1999291999964,300.21361209999304,301.2134903999977,301.2134903999977,301.2134903999977,301.2134903999977,301.2134903999977,302.21319159993436,302.21319159993436,303.2984878999414,z,1,1.0754148000851274,None,,,,,564955,001,2024-10-17_11h49.46.040,motor_sequence,2024.2.1post4,59.923908655285594,2024-10-17 11h50.02.882028 +0530,
-50,x,125,1,31,x,1,1.5951675999676809,None,31,1,125,1,,,,,303.3134522999171,,303.2989630999509,303.3134522999171,304.3130168999778,304.3130168999778,304.3130168999778,304.3130168999778,304.3130168999778,305.3127817999339,305.3127817999339,306.91512909997255,x,1,1.5951675999676809,None,,,,,564955,001,2024-10-17_11h49.46.040,motor_sequence,2024.2.1post4,59.923908655285594,2024-10-17 11h50.02.882028 +0530,
50,c,126,2,31,c,1,0.6273047999711707,None,31,2,126,2,,,,,306.9291011999594,,306.9156931999605,306.9291011999594,307.92921239999123,307.92921239999123,307.92921239999123,307.92921239999123,307.92921239999123,308.929049899918,308.929049899918,309.56427500001155,c,1,0.6273047999711707,None,,,,,564955,001,2024-10-17_11h49.46.040,motor_sequence,2024.2.1post4,59.923908655285594,2024-10-17 11h50.02.882028 +0530,
150,v,127,3,31,v,1,0.3208691000472754,None,31,3,127,3,,,,,309.5800408999203,,309.56471950002015,309.5800408999203,310.57903399993666,310.57903399993666,310.57903399993666,310.57903399993666,310.5954606999876,311.5786111999769,311.5786111999769,311.91425899998285,v,1,0.3208691000472754,None,,,,,564955,001,2024-10-17_11h49.46.040,motor_sequence,2024.2.1post4,59.923908655285594,2024-10-17 11h50.02.882028 +0530,
-150,z,128,0,32,z,1,1.459633699967526,None,32,0,128,0,,,,,311.928614799981,,311.91483879997395,311.928614799981,312.9283682999667,312.9283682999667,312.9283682999667,312.9283682999667,312.9283682999667,313.9284655000083,313.9284655000083,315.3973685000092,z,1,1.459633699967526,None,,,,,564955,001,2024-10-17_11h49.46.040,motor_sequence,2024.2.1post4,59.923908655285594,2024-10-17 11h50.02.882028 +0530,
-50,x,129,1,32,x,1,0.6736485000001267,None,32,1,129,1,,,,,315.4117320999503,,315.3979593999684,315.4117320999503,316.411692099995,316.411692099995,316.411692099995,316.411692099995,316.411692099995,317.4125432999572,317.4125432999572,318.09665329998825,x,1,0.6736485000001267,None,,,,,564955,001,2024-10-17_11h49.46.040,motor_sequence,2024.2.1post4,59.923908655285594,2024-10-17 11h50.02.882028 +0530,
50,c,130,2,32,c,1,0.43835730000864714,None,32,2,130,2,,,,,318.1111999999266,,318.097213299945,318.1111999999266,319.1113712999504,319.1113712999504,319.1113712999504,319.1113712999504,319.1113712999504,320.11133829993196,320.11133829993196,320.5633403999964,c,1,0.43835730000864714,None,,,,,564955,001,2024-10-17_11h49.46.040,motor_sequence,2024.2.1post4,59.923908655285594,2024-10-17 11h50.02.882028 +0530,
150,v,131,3,32,v,1,0.4096622000215575,None,32,3,131,3,,,,,320.5777795999311,,320.5638800000306,320.5777795999311,321.57760530000087,321.57760530000087,321.57760530000087,321.57760530000087,321.57760530000087,322.5773865999654,322.5773865999654,322.99572180001996,v,1,0.4096622000215575,None,,,,,564955,001,2024-10-17_11h49.46.040,motor_sequence,2024.2.1post4,59.923908655285594,2024-10-17 11h50.02.882028 +0530,
-150,z,132,0,33,z,1,0.7997848999220878,None,33,0,132,0,,,,,323.0111711999634,,322.99612339993473,323.0111711999634,324.0105142999673,324.0105142999673,324.0105142999673,324.0105142999673,324.0105142999673,325.01071990001947,325.01071990001947,325.81325170001946,z,1,0.7997848999220878,None,,,,,564955,001,2024-10-17_11h49.46.040,motor_sequence,2024.2.1post4,59.923908655285594,2024-10-17 11h50.02.882028 +0530,
-50,x,133,1,33,x,1,0.4625854000914842,None,33,1,133,1,,,,,325.82707370002754,,325.8137135999277,325.82707370002754,326.8268840999808,326.8268840999808,326.8268840999808,326.8268840999808,326.8268840999808,327.82669020001777,327.82669020001777,328.2964297999861,x,1,0.4625854000914842,None,,,,,564955,001,2024-10-17_11h49.46.040,motor_sequence,2024.2.1post4,59.923908655285594,2024-10-17 11h50.02.882028 +0530,
50,c,134,2,33,c,1,0.8397056000540033,None,33,2,134,2,,,,,328.3099139999831,,328.29697889997624,328.3099139999831,329.30983729998115,329.30983729998115,329.30983729998115,329.30983729998115,329.30983729998115,330.3098666999722,330.3098666999722,331.161402800004,c,1,0.8397056000540033,None,,,,,564955,001,2024-10-17_11h49.46.040,motor_sequence,2024.2.1post4,59.923908655285594,2024-10-17 11h50.02.882028 +0530,
150,v,135,3,33,v,1,0.3741906000068411,None,33,3,135,3,,,,,331.1757648999337,,331.1619952999754,331.1757648999337,332.1764841999393,332.1764841999393,332.1764841999393,332.1764841999393,332.1764841999393,333.17586109996773,333.17586109996773,333.561977299978,v,1,0.3741906000068411,None,,,,,564955,001,2024-10-17_11h49.46.040,motor_sequence,2024.2.1post4,59.923908655285594,2024-10-17 11h50.02.882028 +0530,
-150,z,136,0,34,z,1,0.37007329997140914,None,34,0,136,0,,,,,333.5758230999345,,333.562526899972,333.5758230999345,334.575856499956,334.575856499956,334.575856499956,334.575856499956,334.575856499956,335.5757958999602,335.5757958999602,335.9612849999685,z,1,0.37007329997140914,None,,,,,564955,001,2024-10-17_11h49.46.040,motor_sequence,2024.2.1post4,59.923908655285594,2024-10-17 11h50.02.882028 +0530,
-50,x,137,1,34,x,1,0.32165420008823276,None,34,1,137,1,,,,,335.97582729998976,,335.96188149997033,335.97582729998976,336.9751434000209,336.9751434000209,336.9751434000209,336.9751434000209,336.9751434000209,337.97537529992405,337.97537529992405,338.3112357999198,x,1,0.32165420008823276,None,,,,,564955,001,2024-10-17_11h49.46.040,motor_sequence,2024.2.1post4,59.923908655285594,2024-10-17 11h50.02.882028 +0530,
50,c,138,2,34,c,1,0.3624594999710098,None,34,2,138,2,,,,,338.32537149998825,,338.31181220000144,338.32537149998825,339.32495029992424,339.32495029992424,339.32495029992424,339.32495029992424,339.32495029992424,340.3246560000116,340.3246560000116,340.6936931000091,c,1,0.3624594999710098,None,,,,,564955,001,2024-10-17_11h49.46.040,motor_sequence,2024.2.1post4,59.923908655285594,2024-10-17 11h50.02.882028 +0530,
150,v,139,3,34,v,1,0.5885262000374496,None,34,3,139,3,,,,,340.7085046999855,,340.69400419993326,340.7085046999855,341.7082967000315,341.7082967000315,341.7082967000315,341.7082967000315,341.7082967000315,342.70842999999877,342.70842999999877,343.3105143000139,v,1,0.5885262000374496,None,,,,,564955,001,2024-10-17_11h49.46.040,motor_sequence,2024.2.1post4,59.923908655285594,2024-10-17 11h50.02.882028 +0530,
-150,z,140,0,35,z,1,0.4375691000605002,None,35,0,140,0,,,,,343.32471379998606,,343.3113025999628,343.32471379998606,344.3245762999868,344.3245762999868,344.3245762999868,344.3245762999868,344.3245762999868,345.3249679999426,345.3249679999426,345.7767615999328,z,1,0.4375691000605002,None,,,,,564955,001,2024-10-17_11h49.46.040,motor_sequence,2024.2.1post4,59.923908655285594,2024-10-17 11h50.02.882028 +0530,
-50,x,141,1,35,x,1,0.3226091999094933,None,35,1,141,1,,,,,345.7913500999566,,345.7774577999953,345.7913500999566,346.79091819992755,346.79091819992755,346.79091819992755,346.79091819992755,346.79091819992755,347.7909485999262,347.7909485999262,348.12610979995225,x,1,0.3226091999094933,None,,,,,564955,001,2024-10-17_11h49.46.040,motor_sequence,2024.2.1post4,59.923908655285594,2024-10-17 11h50.02.882028 +0530,
50,c,142,2,35,c,1,0.3192752000177279,None,35,2,142,2,,,,,348.14122019999195,,348.1266591999447,348.14122019999195,349.1408795999596,349.1408795999596,349.1408795999596,349.1408795999596,349.1408795999596,350.1405077999225,350.1405077999225,350.4756261999719,c,1,0.3192752000177279,None,,,,,564955,001,2024-10-17_11h49.46.040,motor_sequence,2024.2.1post4,59.923908655285594,2024-10-17 11h50.02.882028 +0530,
150,v,143,3,35,v,1,0.29922640009317547,None,35,3,143,3,,,,,350.49011699995026,,350.47590880002826,350.49011699995026,351.49039669998456,351.49039669998456,351.49039669998456,351.49039669998456,351.49039669998456,352.4900273999665,352.4900273999665,352.79288299998734,v,1,0.29922640009317547,None,,,,,564955,001,2024-10-17_11h49.46.040,motor_sequence,2024.2.1post4,59.923908655285594,2024-10-17 11h50.02.882028 +0530,
-150,z,144,0,36,z,1,0.39837619999889284,None,36,0,144,0,,,,,352.8071621999843,,352.7934302999638,352.8071621999843,353.80708910000976,353.80708910000976,353.80708910000976,353.80708910000976,353.80708910000976,354.8066774000181,354.8066774000181,355.2087861999171,z,1,0.39837619999889284,None,,,,,564955,001,2024-10-17_11h49.46.040,motor_sequence,2024.2.1post4,59.923908655285594,2024-10-17 11h50.02.882028 +0530,
-50,x,145,1,36,x,1,0.2921605999581516,None,36,1,145,1,,,,,355.2231518999906,,355.20934209995903,355.2231518999906,356.22308020002674,356.22308020002674,356.22308020002674,356.22308020002674,356.22308020002674,357.22277150000446,357.22277150000446,357.52528619999066,x,1,0.2921605999581516,None,,,,,564955,001,2024-10-17_11h49.46.040,motor_sequence,2024.2.1post4,59.923908655285594,2024-10-17 11h50.02.882028 +0530,
50,c,146,2,36,c,1,0.3044242999749258,None,36,2,146,2,,,,,357.5395067000063,,357.5257647000253,357.5395067000063,358.53907299996354,358.53907299996354,358.53907299996354,358.53907299996354,358.53907299996354,359.539122999995,359.539122999995,359.8580117999809,c,1,0.3044242999749258,None,,,,,564955,001,2024-10-17_11h49.46.040,motor_sequence,2024.2.1post4,59.923908655285594,2024-10-17 11h50.02.882028 +0530,
150,v,147,3,36,v,1,0.3298574999207631,None,36,3,147,3,,,,,359.8729622999672,,359.8586631999351,359.8729622999672,360.873258800013,360.873258800013,360.873258800013,360.873258800013,360.873258800013,361.8725334999617,361.8725334999617,362.20784889999777,v,1,0.3298574999207631,None,,,,,564955,001,2024-10-17_11h49.46.040,motor_sequence,2024.2.1post4,59.923908655285594,2024-10-17 11h50.02.882028 +0530,
-150,z,148,0,37,z,1,0.3518982999958098,None,37,0,148,0,,,,,362.22201599995606,,362.2083723000251,362.22201599995606,363.2215839999262,363.2215839999262,363.2215839999262,363.2215839999262,363.2215839999262,364.2225928999251,364.2225928999251,364.5910100999754,z,1,0.3518982999958098,None,,,,,564955,001,2024-10-17_11h49.46.040,motor_sequence,2024.2.1post4,59.923908655285594,2024-10-17 11h50.02.882028 +0530,
-50,x,149,1,37,x,1,0.4018353000283241,None,37,1,149,1,,,,,364.60517489991616,,364.5915911999764,364.60517489991616,365.6052829999244,365.6052829999244,365.6052829999244,365.6052829999244,365.6052829999244,366.6046854000306,366.6046854000306,367.0238962000003,x,1,0.4018353000283241,None,,,,,564955,001,2024-10-17_11h49.46.040,motor_sequence,2024.2.1post4,59.923908655285594,2024-10-17 11h50.02.882028 +0530,
50,c,150,2,37,c,1,0.29182679997757077,None,37,2,150,2,,,,,367.03861219994724,,367.024453299935,367.03861219994724,368.03865200001746,368.03865200001746,368.03865200001746,368.03865200001746,368.03865200001746,369.03815909998957,369.03815909998957,369.34062519995496,c,1,0.29182679997757077,None,,,,,564955,001,2024-10-17_11h49.46.040,motor_sequence,2024.2.1post4,59.923908655285594,2024-10-17 11h50.02.882028 +0530,
150,v,151,3,37,v,1,0.2718602999811992,None,37,3,151,3,,,,,369.35466549999546,,369.3412450000178,369.35466549999546,370.3544848000165,370.3544848000165,370.3544848000165,370.3544848000165,370.3544848000165,371.3545914000133,371.3545914000133,371.64009759994224,v,1,0.2718602999811992,None,,,,,564955,001,2024-10-17_11h49.46.040,motor_sequence,2024.2.1post4,59.923908655285594,2024-10-17 11h50.02.882028 +0530,
-150,z,152,0,38,z,1,0.40574620000552386,None,38,0,152,0,,,,,371.654395999969,,371.6406657999614,371.654395999969,372.65422249992844,372.65422249992844,372.65422249992844,372.65422249992844,372.65422249992844,373.6541648999555,373.6541648999555,374.07317180000246,z,1,0.40574620000552386,None,,,,,564955,001,2024-10-17_11h49.46.040,motor_sequence,2024.2.1post4,59.923908655285594,2024-10-17 11h50.02.882028 +0530,
-50,x,153,1,38,x,1,0.5973868999863043,None,38,1,153,1,,,,,374.08774560003076,,374.07380080001894,374.08774560003076,375.0875182999298,375.0875182999298,375.0875182999298,375.0875182999298,375.0875182999298,376.08716120000463,376.08716120000463,376.6902771999594,x,1,0.5973868999863043,None,,,,,564955,001,2024-10-17_11h49.46.040,motor_sequence,2024.2.1post4,59.923908655285594,2024-10-17 11h50.02.882028 +0530,
50,c,154,2,38,c,1,0.5169756999239326,None,38,2,154,2,,,,,376.7035218999954,,376.6908463999862,376.7035218999954,377.703686999972,377.703686999972,377.703686999972,377.703686999972,377.703686999972,378.7025936000282,378.7025936000282,379.22247209993657,c,1,0.5169756999239326,None,,,,,564955,001,2024-10-17_11h49.46.040,motor_sequence,2024.2.1post4,59.923908655285594,2024-10-17 11h50.02.882028 +0530,
150,v,155,3,38,v,1,0.38484519999474287,None,38,3,155,3,,,,,379.2364620999433,,379.2229612999363,379.2364620999433,380.23744539998006,380.23744539998006,380.23744539998006,380.23744539998006,380.23744539998006,381.23689770000055,381.23689770000055,381.638698499999,v,1,0.38484519999474287,None,,,,,564955,001,2024-10-17_11h49.46.040,motor_sequence,2024.2.1post4,59.923908655285594,2024-10-17 11h50.02.882028 +0530,
-150,z,156,0,39,z,1,0.4571007000049576,None,39,0,156,0,,,,,381.65323990001343,,381.63918529998045,381.65323990001343,382.6531505000312,382.6531505000312,382.6531505000312,382.6531505000312,382.6531505000312,383.6552607999183,383.6552607999183,384.12202479992993,z,1,0.4571007000049576,None,,,,,564955,001,2024-10-17_11h49.46.040,motor_sequence,2024.2.1post4,59.923908655285594,2024-10-17 11h50.02.882028 +0530,
-50,x,157,1,39,x,1,0.663465499994345,None,39,1,157,1,,,,,384.1361683999421,,384.1227909999434,384.1361683999421,385.13607619993854,385.13607619993854,385.13607619993854,385.13607619993854,385.13607619993854,386.1361552999588,386.1361552999588,386.80480719998013,x,1,0.663465499994345,None,,,,,564955,001,2024-10-17_11h49.46.040,motor_sequence,2024.2.1post4,59.923908655285594,2024-10-17 11h50.02.882028 +0530,
50,c,158,2,39,c,1,0.44816379994153976,None,39,2,158,2,,,,,386.8188260999741,,386.805401599966,386.8188260999741,387.8195756999776,387.8195756999776,387.8195756999776,387.8195756999776,387.8195756999776,388.8190959999338,388.8190959999338,389.27135900000576,c,1,0.44816379994153976,None,,,,,564955,001,2024-10-17_11h49.46.040,motor_sequence,2024.2.1post4,59.923908655285594,2024-10-17 11h50.02.882028 +0530,
150,v,159,3,39,v,1,0.33031380001921207,None,39,3,159,3,,,,,389.28595379996113,,389.27188369992655,389.28595379996113,390.28552819998004,390.28552819998004,390.28552819998004,390.28552819998004,390.28552819998004,391.2851796000032,391.2851796000032,391.6211820000317,v,1,0.33031380001921207,None,,,,,564955,001,2024-10-17_11h49.46.040,motor_sequence,2024.2.1post4,59.923908655285594,2024-10-17 11h50.02.882028 +0530,
-150,z,160,0,40,z,1,0.5075606999453157,None,40,0,160,0,,,,,391.63713589997496,,391.6217485999223,391.63713589997496,392.6351166999666,392.6351166999666,392.6351166999666,392.6351166999666,392.6516241999343,393.63727950002067,393.63727950002067,394.1540522000287,z,1,0.5075606999453157,None,,,,,564955,001,2024-10-17_11h49.46.040,motor_sequence,2024.2.1post4,59.923908655285594,2024-10-17 11h50.02.882028 +0530,
-50,x,161,1,40,x,1,0.7688391000265256,None,40,1,161,1,,,,,394.1681210999377,,394.15470579999965,394.1681210999377,395.168021599995,395.168021599995,395.168021599995,395.168021599995,395.168021599995,396.16836649994366,396.16836649994366,396.95324910001364,x,1,0.7688391000265256,None,,,,,564955,001,2024-10-17_11h49.46.040,motor_sequence,2024.2.1post4,59.923908655285594,2024-10-17 11h50.02.882028 +0530,
50,c,162,2,40,c,1,0.9501980999484658,None,40,2,162,2,,,,,396.967791199917,,396.9537973999977,396.967791199917,397.96790069993585,397.96790069993585,397.96790069993585,397.96790069993585,397.96790069993585,398.967722899979,398.967722899979,399.9203872999642,c,1,0.9501980999484658,None,,,,,564955,001,2024-10-17_11h49.46.040,motor_sequence,2024.2.1post4,59.923908655285594,2024-10-17 11h50.02.882028 +0530,
150,v,163,3,40,v,1,0.505945699987933,None,40,3,163,3,,,,,399.9343559999252,,399.92098249995615,399.9343559999252,400.9339760999428,400.9339760999428,400.9339760999428,400.9339760999428,400.9339760999428,401.93425719998777,401.93425719998777,402.4529813999543,v,1,0.505945699987933,None,,,,,564955,001,2024-10-17_11h49.46.040,motor_sequence,2024.2.1post4,59.923908655285594,2024-10-17 11h50.02.882028 +0530,
-150,z,164,0,41,z,1,0.5067453000228852,None,41,0,164,0,,,,,402.4670596999349,,402.4535728999181,402.4670596999349,403.4668222999899,403.4668222999899,403.4668222999899,403.4668222999899,403.4668222999899,404.4662600000156,404.4662600000156,404.98564600001555,z,1,0.5067453000228852,None,,,,,564955,001,2024-10-17_11h49.46.040,motor_sequence,2024.2.1post4,59.923908655285594,2024-10-17 11h50.02.882028 +0530,
-50,x,165,1,41,x,1,0.4754060000414029,None,41,1,165,1,,,,,405.0006308000302,,404.98623329994734,405.0006308000302,406.0001073000021,406.0001073000021,406.0001073000021,406.0001073000021,406.0001073000021,406.99974250001833,406.99974250001833,407.4855537000112,x,1,0.4754060000414029,None,,,,,564955,001,2024-10-17_11h49.46.040,motor_sequence,2024.2.1post4,59.923908655285594,2024-10-17 11h50.02.882028 +0530,
50,c,166,2,41,c,1,0.7513551999581978,None,41,2,166,2,,,,,407.4999026999576,,407.48603169992566,407.4999026999576,408.4997316999361,408.4997316999361,408.4997316999361,408.4997316999361,408.4997316999361,409.49959989998024,409.49959989998024,410.26793939992785,c,1,0.7513551999581978,None,,,,,564955,001,2024-10-17_11h49.46.040,motor_sequence,2024.2.1post4,59.923908655285594,2024-10-17 11h50.02.882028 +0530,
150,v,167,3,41,v,1,0.38589160004630685,None,41,3,167,3,,,,,410.28286969999317,,410.26861389994156,410.28286969999317,411.2826149999164,411.2826149999164,411.2826149999164,411.2826149999164,411.2826149999164,412.28253259998746,412.28253259998746,412.685098499991,v,1,0.38589160004630685,None,,,,,564955,001,2024-10-17_11h49.46.040,motor_sequence,2024.2.1post4,59.923908655285594,2024-10-17 11h50.02.882028 +0530,
-150,z,168,0,42,z,1,0.45206039992626756,None,42,0,168,0,,,,,412.69932359992526,,412.68568929994944,412.69932359992526,413.69896609999705,413.69896609999705,413.69896609999705,413.69896609999705,413.69896609999705,414.6994886000175,414.6994886000175,415.1671541000251,z,1,0.45206039992626756,None,,,,,564955,001,2024-10-17_11h49.46.040,motor_sequence,2024.2.1post4,59.923908655285594,2024-10-17 11h50.02.882028 +0530,
-50,x,169,1,42,x,1,0.8120010000420734,None,42,1,169,1,,,,,415.1822154999245,,415.16772949998267,415.1822154999245,416.18205239996314,416.18205239996314,416.18205239996314,416.18205239996314,416.18205239996314,417.1816064999439,417.1816064999439,418.0009424999589,x,1,0.8120010000420734,None,,,,,564955,001,2024-10-17_11h49.46.040,motor_sequence,2024.2.1post4,59.923908655285594,2024-10-17 11h50.02.882028 +0530,
50,c,170,2,42,c,1,0.6235013999976218,None,42,2,170,2,,,,,418.0151512000011,,418.0014780999627,418.0151512000011,419.0148842999479,419.0148842999479,419.0148842999479,419.0148842999479,419.0148842999479,420.0152881999966,420.0152881999966,420.65048029995523,c,1,0.6235013999976218,None,,,,,564955,001,2024-10-17_11h49.46.040,motor_sequence,2024.2.1post4,59.923908655285594,2024-10-17 11h50.02.882028 +0530,
150,v,171,3,42,v,1,0.9961511999135837,None,42,3,171,3,,,,,420.66490189998876,,420.65103389997967,420.66490189998876,421.6649046000093,421.6649046000093,421.6649046000093,421.6649046000093,421.6649046000093,422.66457589995116,422.66457589995116,423.66695390001405,v,1,0.9961511999135837,None,,,,,564955,001,2024-10-17_11h49.46.040,motor_sequence,2024.2.1post4,59.923908655285594,2024-10-17 11h50.02.882028 +0530,
-150,z,172,0,43,z,1,0.6013407000573352,None,43,0,172,0,,,,,423.6815753999399,,423.66751299996395,423.6815753999399,424.6810850999318,424.6810850999318,424.6810850999318,424.6810850999318,424.6810850999318,425.6808639999945,425.6808639999945,426.30002429999877,z,1,0.6013407000573352,None,,,,,564955,001,2024-10-17_11h49.46.040,motor_sequence,2024.2.1post4,59.923908655285594,2024-10-17 11h50.02.882028 +0530,
-50,x,173,1,43,x,1,0.34906739997677505,None,43,1,173,1,,,,,426.31439710000996,,426.30073429993354,426.31439710000996,427.31427809991874,427.31427809991874,427.31427809991874,427.31427809991874,427.31427809991874,428.31381630001124,428.31381630001124,428.6659605000168,x,1,0.34906739997677505,None,,,,,564955,001,2024-10-17_11h49.46.040,motor_sequence,2024.2.1post4,59.923908655285594,2024-10-17 11h50.02.882028 +0530,
50,c,174,2,43,c,1,0.31977960001677275,None,43,2,174,2,,,,,428.6802697000094,,428.6664403999457,428.6802697000094,429.6802630999591,429.6802630999591,429.6802630999591,429.6802630999591,429.6802630999591,430.6804755999474,430.6804755999474,431.0159812999191,c,1,0.31977960001677275,None,,,,,564955,001,2024-10-17_11h49.46.040,motor_sequence,2024.2.1post4,59.923908655285594,2024-10-17 11h50.02.882028 +0530,
150,v,175,3,43,v,1,0.3807537999236956,None,43,3,175,3,,,,,431.03016299998853,,431.0165914000245,431.03016299998853,432.02999269997235,432.02999269997235,432.02999269997235,432.02999269997235,432.02999269997235,433.03002399997786,433.03002399997786,433.4162826000247,v,1,0.3807537999236956,None,,,,,564955,001,2024-10-17_11h49.46.040,motor_sequence,2024.2.1post4,59.923908655285594,2024-10-17 11h50.02.882028 +0530,
-150,z,176,0,44,z,1,0.3710238999919966,None,44,0,176,0,,,,,433.4304965999909,,433.41687109996565,433.4304965999909,434.4294965999434,434.4294965999434,434.4294965999434,434.4294965999434,434.4294965999434,435.42963050003164,435.42963050003164,435.81504649994895,z,1,0.3710238999919966,None,,,,,564955,001,2024-10-17_11h49.46.040,motor_sequence,2024.2.1post4,59.923908655285594,2024-10-17 11h50.02.882028 +0530,
-50,x,177,1,44,x,1,0.5790686999680474,None,44,1,177,1,,,,,435.82945959991775,,435.81573889998253,435.82945959991775,436.82935200002976,436.82935200002976,436.82935200002976,436.82935200002976,436.82935200002976,437.82959290000144,437.82959290000144,438.4149094999302,x,1,0.5790686999680474,None,,,,,564955,001,2024-10-17_11h49.46.040,motor_sequence,2024.2.1post4,59.923908655285594,2024-10-17 11h50.02.882028 +0530,
50,c,178,2,44,c,1,0.3629442999372259,None,44,2,178,2,,,,,438.4288465999998,,438.4154504999751,438.4288465999998,439.42904519999865,439.42904519999865,439.42904519999865,439.42904519999865,439.42904519999865,440.42899469996337,440.42899469996337,440.79806399997324,c,1,0.3629442999372259,None,,,,,564955,001,2024-10-17_11h49.46.040,motor_sequence,2024.2.1post4,59.923908655285594,2024-10-17 11h50.02.882028 +0530,
150,v,179,3,44,v,1,0.33528040000237525,None,44,3,179,3,,,,,440.8122792999493,,440.79868439992424,440.8122792999493,441.8119948999956,441.8119948999956,441.8119948999956,441.8119948999956,441.8119948999956,442.8122558000032,442.8122558000032,443.16415369999595,v,1,0.33528040000237525,None,,,,,564955,001,2024-10-17_11h49.46.040,motor_sequence,2024.2.1post4,59.923908655285594,2024-10-17 11h50.02.882028 +0530,
-150,z,180,0,45,z,1,0.4001110000535846,None,45,0,180,0,,,,,443.1785366999684,,443.16471429995727,443.1785366999684,444.1783916000277,444.1783916000277,444.1783916000277,444.1783916000277,444.1783916000277,445.1783913000254,445.1783913000254,445.5805747000268,z,1,0.4001110000535846,None,,,,,564955,001,2024-10-17_11h49.46.040,motor_sequence,2024.2.1post4,59.923908655285594,2024-10-17 11h50.02.882028 +0530,
-50,x,181,1,45,x,1,0.38740519993007183,None,45,1,181,1,,,,,445.59416869992856,,445.58103889995255,445.59416869992856,446.5949501999421,446.5949501999421,446.5949501999421,446.5949501999421,446.5949501999421,447.595488699968,447.595488699968,447.9969697999768,x,1,0.38740519993007183,None,,,,,564955,001,2024-10-17_11h49.46.040,motor_sequence,2024.2.1post4,59.923908655285594,2024-10-17 11h50.02.882028 +0530,
50,c,182,2,45,c,1,0.6452107999939471,None,45,2,182,2,,,,,448.0115363999503,,447.99763979995623,448.0115363999503,449.0109345000237,449.0109345000237,449.0109345000237,449.0109345000237,449.0109345000237,450.011521599954,450.011521599954,450.6633336999221,c,1,0.6452107999939471,None,,,,,564955,001,2024-10-17_11h49.46.040,motor_sequence,2024.2.1post4,59.923908655285594,2024-10-17 11h50.02.882028 +0530,
150,v,183,3,45,v,1,0.38236419996246696,None,45,3,183,3,,,,,450.67749909998383,,450.66391050000675,450.67749909998383,451.6772896000184,451.6772896000184,451.6772896000184,451.6772896000184,451.6772896000184,452.6774238999933,452.6774238999933,453.0630900999531,v,1,0.38236419996246696,None,,,,,564955,001,2024-10-17_11h49.46.040,motor_sequence,2024.2.1post4,59.923908655285594,2024-10-17 11h50.02.882028 +0530,
-150,z,184,0,46,z,1,1.0305068000452593,None,46,0,184,0,,,,,453.07750779995695,,453.06362529995386,453.07750779995695,454.07734720001463,454.07734720001463,454.07734720001463,454.07734720001463,454.07734720001463,455.0771984999301,455.0771984999301,456.1129507999867,z,1,1.0305068000452593,None,,,,,564955,001,2024-10-17_11h49.46.040,motor_sequence,2024.2.1post4,59.923908655285594,2024-10-17 11h50.02.882028 +0530,
-50,x,185,1,46,x,1,0.430884400033392,None,46,1,185,1,,,,,456.126949199941,,456.1134250999894,456.126949199941,457.12694699992426,457.12694699992426,457.12694699992426,457.12694699992426,457.12694699992426,458.1263801000314,458.1263801000314,458.56222199997865,x,1,0.430884400033392,None,,,,,564955,001,2024-10-17_11h49.46.040,motor_sequence,2024.2.1post4,59.923908655285594,2024-10-17 11h50.02.882028 +0530,
50,c,186,2,46,c,1,0.754001299967058,None,46,2,186,2,,,,,458.5767016999889,,458.5628438999411,458.5767016999889,459.5760030000238,459.5760030000238,459.5760030000238,459.5760030000238,459.5760030000238,460.5763001999585,460.5763001999585,461.3437571999384,c,1,0.754001299967058,None,,,,,564955,001,2024-10-17_11h49.46.040,motor_sequence,2024.2.1post4,59.923908655285594,2024-10-17 11h50.02.882028 +0530,
150,v,187,3,46,v,1,0.38500659994315356,None,46,3,187,3,,,,,461.3593888999894,,461.34419819992036,461.3593888999894,462.35930519993417,462.35930519993417,462.35930519993417,462.35930519993417,462.35930519993417,463.3590562000172,463.3590562000172,463.7613462000154,v,1,0.38500659994315356,None,,,,,564955,001,2024-10-17_11h49.46.040,motor_sequence,2024.2.1post4,59.923908655285594,2024-10-17 11h50.02.882028 +0530,
-150,z,188,0,47,z,1,0.7620027000084519,None,47,0,188,0,,,,,463.77600730000995,,463.7618963000132,463.77600730000995,464.77582019998226,464.77582019998226,464.77582019998226,464.77582019998226,464.77582019998226,465.775965299923,465.775965299923,466.5441989999963,z,1,0.7620027000084519,None,,,,,564955,001,2024-10-17_11h49.46.040,motor_sequence,2024.2.1post4,59.923908655285594,2024-10-17 11h50.02.882028 +0530,
-50,x,189,1,47,x,1,0.4044335000216961,None,47,1,189,1,,,,,466.5590581999859,,466.544754399918,466.5590581999859,467.55851939995773,467.55851939995773,467.55851939995773,467.55851939995773,467.55851939995773,468.5588788000168,468.5588788000168,468.9777673999779,x,1,0.4044335000216961,None,,,,,564955,001,2024-10-17_11h49.46.040,motor_sequence,2024.2.1post4,59.923908655285594,2024-10-17 11h50.02.882028 +0530,
50,c,190,2,47,c,1,0.2963631999446079,None,47,2,190,2,,,,,468.9923137000296,,468.97831989999395,468.9923137000296,469.9919843999669,469.9919843999669,469.9919843999669,469.9919843999669,469.9919843999669,470.99179979995824,470.99179979995824,471.29389869992156,c,1,0.2963631999446079,None,,,,,564955,001,2024-10-17_11h49.46.040,motor_sequence,2024.2.1post4,59.923908655285594,2024-10-17 11h50.02.882028 +0530,
150,v,191,3,47,v,1,0.3011313999304548,None,47,3,191,3,,,,,471.308377499925,,471.2944138000021,471.308377499925,472.30778199993074,472.30778199993074,472.30778199993074,472.30778199993074,472.30778199993074,473.3078804999823,473.3078804999823,473.6270883999532,v,1,0.3011313999304548,None,,,,,564955,001,2024-10-17_11h49.46.040,motor_sequence,2024.2.1post4,59.923908655285594,2024-10-17 11h50.02.882028 +0530,
-150,z,192,0,48,z,1,0.4395208000205457,None,48,0,192,0,,,,,473.6415914000245,,473.6276333000278,473.6415914000245,474.6253237000201,474.6253237000201,474.6253237000201,474.6253237000201,474.64113090001047,475.6411977999378,475.6411977999378,476.0931827999884,z,1,0.4395208000205457,None,,,,,564955,001,2024-10-17_11h49.46.040,motor_sequence,2024.2.1post4,59.923908655285594,2024-10-17 11h50.02.882028 +0530,
-50,x,193,1,48,x,1,0.3957373999292031,None,48,1,193,1,,,,,476.107929199934,,476.0937393999193,476.107929199934,477.1079301999416,477.1079301999416,477.1079301999416,477.1079301999416,477.1079301999416,478.107450600015,478.107450600015,478.50925250002183,x,1,0.3957373999292031,None,,,,,564955,001,2024-10-17_11h49.46.040,motor_sequence,2024.2.1post4,59.923908655285594,2024-10-17 11h50.02.882028 +0530,
50,c,194,2,48,c,1,0.3140221999492496,None,48,2,194,2,,,,,478.52387309994083,,478.50981949991547,478.52387309994083,479.5239426000044,479.5239426000044,479.5239426000044,479.5239426000044,479.5239426000044,480.52397550002206,480.52397550002206,480.84291389991995,c,1,0.3140221999492496,None,,,,,564955,001,2024-10-17_11h49.46.040,motor_sequence,2024.2.1post4,59.923908655285594,2024-10-17 11h50.02.882028 +0530,
150,v,195,3,48,v,1,0.3409500999841839,None,48,3,195,3,,,,,480.85724109993316,,480.8435401999159,480.85724109993316,481.8573387999786,481.8573387999786,481.8573387999786,481.8573387999786,481.8573387999786,482.85684070002753,482.85684070002753,483.208679299918,v,1,0.3409500999841839,None,,,,,564955,001,2024-10-17_11h49.46.040,motor_sequence,2024.2.1post4,59.923908655285594,2024-10-17 11h50.02.882028 +0530,
-150,z,196,0,49,z,1,0.47699310001917183,None,49,0,196,0,,,,,483.22321680001915,,483.20907679991797,483.22321680001915,484.2234830999514,484.2234830999514,484.2234830999514,484.2234830999514,484.2234830999514,485.22376109997276,485.22376109997276,485.7089886999456,z,1,0.47699310001917183,None,,,,,564955,001,2024-10-17_11h49.46.040,motor_sequence,2024.2.1post4,59.923908655285594,2024-10-17 11h50.02.882028 +0530,
-50,x,197,1,49,x,1,0.35802690009586513,None,49,1,197,1,,,,,485.7232598999981,,485.70951670000795,485.7232598999981,486.7228316999972,486.7228316999972,486.7228316999972,486.7228316999972,486.7228316999972,487.723708699923,487.723708699923,488.0910190999275,x,1,0.35802690009586513,None,,,,,564955,001,2024-10-17_11h49.46.040,motor_sequence,2024.2.1post4,59.923908655285594,2024-10-17 11h50.02.882028 +0530,
50,c,198,2,49,c,1,0.38735720003023744,None,49,2,198,2,,,,,488.106711099972,,488.0915340000065,488.106711099972,489.1060476999264,489.1060476999264,489.1060476999264,489.1060476999264,489.1060476999264,490.1059248999227,490.1059248999227,490.50853290001396,c,1,0.38735720003023744,None,,,,,564955,001,2024-10-17_11h49.46.040,motor_sequence,2024.2.1post4,59.923908655285594,2024-10-17 11h50.02.882028 +0530,
150,v,199,3,49,v,1,0.29125270002987236,None,49,3,199,3,,,,,490.52261149999686,,490.5090841000201,490.52261149999686,491.52242319996003,491.52242319996003,491.52242319996003,491.52242319996003,491.52242319996003,492.5220174000133,492.5220174000133,492.8248269999167,v,1,0.29125270002987236,None,,,,,564955,001,2024-10-17_11h49.46.040,motor_sequence,2024.2.1post4,59.923908655285594,2024-10-17 11h50.02.882028 +0530,
-150,z,0,0,0,z,1,0.6840173000236973,None,,,,,0,0,0,0,493.2006332000019,,493.194820899982,493.2006332000019,493.8387352999998,493.8387352999998,493.8387352999998,493.8387352999998,494.205271899933,494.83837769995444,494.83837769995444,495.52506709995214,,,,,z,1,0.6840173000236973,None,564955,001,2024-10-17_11h49.46.040,motor_sequence,2024.2.1post4,59.923908655285594,2024-10-17 11h50.02.882028 +0530,
50,c,1,1,0,c,1,0.9096192999277264,None,,,,,0,1,1,2,495.5386142999632,,495.52564839995466,495.5386142999632,496.53846890002023,496.53846890002023,496.53846890002023,496.53846890002023,496.53846890002023,497.53856219991576,497.53856219991576,498.4564348999411,,,,,c,1,0.9096192999277264,None,564955,001,2024-10-17_11h49.46.040,motor_sequence,2024.2.1post4,59.923908655285594,2024-10-17 11h50.02.882028 +0530,
50,c,2,2,1,c,1,0.9657097000163049,None,,,,,1,2,2,2,498.4717529999325,,498.4568689999869,498.4717529999325,499.4714851999888,499.4714851999888,499.4714851999888,499.4714851999888,499.4714851999888,500.4715813000221,500.4715813000221,501.43969979998656,,,,,c,1,0.9657097000163049,None,564955,001,2024-10-17_11h49.46.040,motor_sequence,2024.2.1post4,59.923908655285594,2024-10-17 11h50.02.882028 +0530,
150,v,3,3,0,v,1,0.8544101999141276,None,,,,,0,3,3,3,501.45485029998235,,501.44021209992934,501.45485029998235,502.45400689996313,502.45400689996313,502.45400689996313,502.45400689996313,502.45400689996313,503.45377919997554,503.45377919997554,504.32280600001104,,,,,v,1,0.8544101999141276,None,564955,001,2024-10-17_11h49.46.040,motor_sequence,2024.2.1post4,59.923908655285594,2024-10-17 11h50.02.882028 +0530,
-50,x,4,4,0,x,1,0.8801291000563651,None,,,,,0,4,4,1,504.33700379997026,,504.3231491999468,504.33700379997026,505.33765040000435,505.33765040000435,505.33765040000435,505.33765040000435,505.33765040000435,506.3373428999912,506.3373428999912,507.22289390000515,,,,,x,1,0.8801291000563651,None,564955,001,2024-10-17_11h49.46.040,motor_sequence,2024.2.1post4,59.923908655285594,2024-10-17 11h50.02.882028 +0530,
-50,x,5,5,1,x,1,0.6965017999755219,None,,,,,1,5,5,1,507.2369251999771,,507.22346719994675,507.2369251999771,508.23679519991856,508.23679519991856,508.23679519991856,508.23679519991856,508.23679519991856,509.237005700008,509.237005700008,509.93877250002697,,,,,x,1,0.6965017999755219,None,564955,001,2024-10-17_11h49.46.040,motor_sequence,2024.2.1post4,59.923908655285594,2024-10-17 11h50.02.882028 +0530,
-150,z,6,6,1,z,1,0.8008547999197617,None,,,,,1,6,6,0,509.95319749997,,509.93934219994117,509.95319749997,510.9535935999593,510.9535935999593,510.9535935999593,510.9535935999593,510.9535935999593,511.95317869994324,511.95317869994324,512.7716539999237,,,,,z,1,0.8008547999197617,None,564955,001,2024-10-17_11h49.46.040,motor_sequence,2024.2.1post4,59.923908655285594,2024-10-17 11h50.02.882028 +0530,
50,c,7,7,2,c,1,0.8427432999014854,None,,,,,2,7,7,2,512.7861933999229,,512.7722590999911,512.7861933999229,513.7863390999846,513.7863390999846,513.7863390999846,513.7863390999846,513.7863390999846,514.7867173999548,514.7867173999548,515.6380234999815,,,,,c,1,0.8427432999014854,None,564955,001,2024-10-17_11h49.46.040,motor_sequence,2024.2.1post4,59.923908655285594,2024-10-17 11h50.02.882028 +0530,
-50,x,8,8,2,x,1,0.6653751999838278,None,,,,,2,8,8,1,515.6526141000213,,515.6386078000069,515.6526141000213,516.6525172999827,516.6525172999827,516.6525172999827,516.6525172999827,516.6525172999827,517.6525644999929,517.6525644999929,518.321506200009,,,,,x,1,0.6653751999838278,None,564955,001,2024-10-17_11h49.46.040,motor_sequence,2024.2.1post4,59.923908655285594,2024-10-17 11h50.02.882028 +0530,
-150,z,9,9,2,z,1,0.6701704000588506,None,,,,,2,9,9,0,518.3356229999335,,518.322036699974,518.3356229999335,519.3355641999515,519.3355641999515,519.3355641999515,519.3355641999515,519.3355641999515,520.3352739999536,520.3352739999536,521.0209838999435,,,,,z,1,0.6701704000588506,None,564955,001,2024-10-17_11h49.46.040,motor_sequence,2024.2.1post4,59.923908655285594,2024-10-17 11h50.02.882028 +0530,
50,c,10,10,3,c,1,0.886366399936378,None,,,,,3,10,10,2,521.0353762999875,,521.0215858999873,521.0353762999875,522.0353170000017,522.0353170000017,522.0353170000017,522.0353170000017,522.0353170000017,523.0351942999987,523.0351942999987,523.9373554999474,,,,,c,1,0.886366399936378,None,564955,001,2024-10-17_11h49.46.040,motor_sequence,2024.2.1post4,59.923908655285594,2024-10-17 11h50.02.882028 +0530,
50,c,11,11,4,c,1,0.6124026000034064,None,,,,,4,11,11,2,523.9514444000088,,523.9380072000204,523.9514444000088,524.9513383000158,524.9513383000158,524.9513383000158,524.9513383000158,524.9513383000158,525.951801899937,525.951801899937,526.5702321999706,,,,,c,1,0.6124026000034064,None,564955,001,2024-10-17_11h49.46.040,motor_sequence,2024.2.1post4,59.923908655285594,2024-10-17 11h50.02.882028 +0530,
-150,z,12,12,3,z,1,0.6828139000572264,None,,,,,3,12,12,0,526.5843982999213,,526.5707775999326,526.5843982999213,527.5843801000156,527.5843801000156,527.5843801000156,527.5843801000156,527.5843801000156,528.5845091999508,528.5845091999508,529.270602399949,,,,,z,1,0.6828139000572264,None,564955,001,2024-10-17_11h49.46.040,motor_sequence,2024.2.1post4,59.923908655285594,2024-10-17 11h50.02.882028 +0530,
150,v,13,13,1,v,1,0.6396504000294954,None,,,,,1,13,13,3,529.2858909999486,,529.2714171999833,529.2858909999486,530.2846530999523,530.2846530999523,530.2846530999523,530.2846530999523,530.2846530999523,531.2834784999723,531.2834784999723,531.9367664000019,,,,,v,1,0.6396504000294954,None,564955,001,2024-10-17_11h49.46.040,motor_sequence,2024.2.1post4,59.923908655285594,2024-10-17 11h50.02.882028 +0530,
-50,x,14,14,3,x,1,0.6757512000622228,None,,,,,3,14,14,1,531.9519231999293,,531.937136100023,531.9519231999293,532.9502195999958,532.9502195999958,532.9502195999958,532.9502195999958,532.967139699962,533.950429599965,533.950429599965,534.636069900007,,,,,x,1,0.6757512000622228,None,564955,001,2024-10-17_11h49.46.040,motor_sequence,2024.2.1post4,59.923908655285594,2024-10-17 11h50.02.882028 +0530,
50,c,15,15,5,c,1,0.7496292000869289,None,,,,,5,15,15,2,534.6500967999455,,534.6366462999722,534.6500967999455,535.6501690000296,535.6501690000296,535.6501690000296,535.6501690000296,535.6501690000296,536.6500609000213,536.6500609000213,537.4023443999467,,,,,c,1,0.7496292000869289,None,564955,001,2024-10-17_11h49.46.040,motor_sequence,2024.2.1post4,59.923908655285594,2024-10-17 11h50.02.882028 +0530,
50,c,16,16,6,c,1,0.6859660999616608,None,,,,,6,16,16,2,537.4163260000059,,537.4029214999173,537.4163260000059,538.4165667999769,538.4165667999769,538.4165667999769,538.4165667999769,538.4165667999769,539.4159968999447,539.4159968999447,540.1185203000205,,,,,c,1,0.6859660999616608,None,564955,001,2024-10-17_11h49.46.040,motor_sequence,2024.2.1post4,59.923908655285594,2024-10-17 11h50.02.882028 +0530,
150,v,17,17,2,v,1,0.6419684999855235,None,,,,,2,17,17,3,540.1327603999525,,540.1190561000258,540.1327603999525,541.1328983999556,541.1328983999556,541.1328983999556,541.1328983999556,541.1328983999556,542.1322866999544,542.1322866999544,542.7848843999673,,,,,v,1,0.6419684999855235,None,564955,001,2024-10-17_11h49.46.040,motor_sequence,2024.2.1post4,59.923908655285594,2024-10-17 11h50.02.882028 +0530,
150,v,18,18,3,v,1,0.7926068999804556,None,,,,,3,18,18,3,542.7993042999879,,542.7854575000238,542.7993042999879,543.7992544999579,543.7992544999579,543.7992544999579,543.7992544999579,543.7992544999579,544.7990626000101,544.7990626000101,545.6008963999338,,,,,v,1,0.7926068999804556,None,564955,001,2024-10-17_11h49.46.040,motor_sequence,2024.2.1post4,59.923908655285594,2024-10-17 11h50.02.882028 +0530,
150,v,19,19,4,v,1,0.7235893999459222,None,,,,,4,19,19,3,545.6154447000008,,545.6014566000085,545.6154447000008,546.6154597999994,546.6154597999994,546.6154597999994,546.6154597999994,546.6154597999994,547.6151681999909,547.6151681999909,548.3503126000287,,,,,v,1,0.7235893999459222,None,564955,001,2024-10-17_11h49.46.040,motor_sequence,2024.2.1post4,59.923908655285594,2024-10-17 11h50.02.882028 +0530,
150,v,20,20,5,v,1,0.7306076000677422,None,,,,,5,20,20,3,548.3649579000194,,548.3510066999588,548.3649579000194,549.3651450999314,549.3651450999314,549.3651450999314,549.3651450999314,549.3651450999314,550.3649286000291,550.3649286000291,551.1005666999845,,,,,v,1,0.7306076000677422,None,564955,001,2024-10-17_11h49.46.040,motor_sequence,2024.2.1post4,59.923908655285594,2024-10-17 11h50.02.882028 +0530,
150,v,21,21,6,v,1,0.6406696999911219,None,,,,,6,21,21,3,551.1147712999955,,551.1011167999823,551.1147712999955,552.1147161999252,552.1147161999252,552.1147161999252,552.1147161999252,552.1147161999252,553.1144264999311,553.1144264999311,553.7670626000036,,,,,v,1,0.6406696999911219,None,564955,001,2024-10-17_11h49.46.040,motor_sequence,2024.2.1post4,59.923908655285594,2024-10-17 11h50.02.882028 +0530,
-150,z,22,22,4,z,1,0.7102639999939129,None,,,,,4,22,22,0,553.7804301999277,,553.7673752999399,553.7804301999277,554.7813338999404,554.7813338999404,554.7813338999404,554.7813338999404,554.7813338999404,555.7809376999503,555.7809376999503,556.4998347000219,,,,,z,1,0.7102639999939129,None,564955,001,2024-10-17_11h49.46.040,motor_sequence,2024.2.1post4,59.923908655285594,2024-10-17 11h50.02.882028 +0530,
-150,z,23,23,5,z,1,0.7016557999886572,None,,,,,5,23,23,0,556.5143937999383,,556.5004173999187,556.5143937999383,557.5141809999477,557.5141809999477,557.5141809999477,557.5141809999477,557.5141809999477,558.5140488999896,558.5140488999896,559.2330365999369,,,,,z,1,0.7016557999886572,None,564955,001,2024-10-17_11h49.46.040,motor_sequence,2024.2.1post4,59.923908655285594,2024-10-17 11h50.02.882028 +0530,
50,c,24,24,7,c,1,0.6736551999347284,None,,,,,7,24,24,2,559.247016999987,,559.2336313999258,559.247016999987,560.2476696999511,560.2476696999511,560.2476696999511,560.2476696999511,560.2476696999511,561.2469074999681,561.2469074999681,561.9321437999606,,,,,c,1,0.6736551999347284,None,564955,001,2024-10-17_11h49.46.040,motor_sequence,2024.2.1post4,59.923908655285594,2024-10-17 11h50.02.882028 +0530,
150,v,25,25,7,v,1,0.6306753000244498,None,,,,,7,25,25,3,561.946787099936,,561.9327233999502,561.946787099936,562.946537300013,562.946537300013,562.946537300013,562.946537300013,562.946537300013,563.946461900021,563.946461900021,564.5830860999413,,,,,v,1,0.6306753000244498,None,564955,001,2024-10-17_11h49.46.040,motor_sequence,2024.2.1post4,59.923908655285594,2024-10-17 11h50.02.882028 +0530,
150,v,26,26,8,v,1,0.5284322999650612,None,,,,,8,26,26,3,564.5965872999514,,564.5836727999849,564.5965872999514,565.5961836000206,565.5961836000206,565.5961836000206,565.5961836000206,565.5961836000206,566.5962572999997,566.5962572999997,567.1318328999914,,,,,v,1,0.5284322999650612,None,564955,001,2024-10-17_11h49.46.040,motor_sequence,2024.2.1post4,59.923908655285594,2024-10-17 11h50.02.882028 +0530,
50,c,27,27,8,c,1,0.7739474999252707,None,,,,,8,27,27,2,567.1460916999495,,567.1323914999375,567.1460916999495,568.1460000999505,568.1460000999505,568.1460000999505,568.1460000999505,568.1460000999505,569.1459485000232,569.1459485000232,569.9315084000118,,,,,c,1,0.7739474999252707,None,564955,001,2024-10-17_11h49.46.040,motor_sequence,2024.2.1post4,59.923908655285594,2024-10-17 11h50.02.882028 +0530,
-150,z,28,28,6,z,1,0.7826586998999119,None,,,,,6,28,28,0,569.945674699964,,569.9321408999385,569.945674699964,570.945749699953,570.945749699953,570.945749699953,570.945749699953,570.945749699953,571.9455659999512,571.9455659999512,572.7315663999179,,,,,z,1,0.7826586998999119,None,564955,001,2024-10-17_11h49.46.040,motor_sequence,2024.2.1post4,59.923908655285594,2024-10-17 11h50.02.882028 +0530,
50,c,29,29,9,c,1,0.7517591998912394,None,,,,,9,29,29,2,572.7455859999172,,572.7322278999491,572.7455859999172,573.7453579999274,573.7453579999274,573.7453579999274,573.7453579999274,573.7453579999274,574.7448623999953,574.7448623999953,575.514199999976,,,,,c,1,0.7517591998912394,None,564955,001,2024-10-17_11h49.46.040,motor_sequence,2024.2.1post4,59.923908655285594,2024-10-17 11h50.02.882028 +0530,
150,v,30,30,9,v,1,0.5492030999157578,None,,,,,9,30,30,3,575.5283334000269,,575.5147684999974,575.5283334000269,576.5280389999971,576.5280389999971,576.5280389999971,576.5280389999971,576.5280389999971,577.5276984999655,577.5276984999655,578.080459699966,,,,,v,1,0.5492030999157578,None,564955,001,2024-10-17_11h49.46.040,motor_sequence,2024.2.1post4,59.923908655285594,2024-10-17 11h50.02.882028 +0530,
-50,x,31,31,4,x,1,0.7549002999439836,None,,,,,4,31,31,1,578.0946959999856,,578.0810741999885,578.0946959999856,579.0946427999297,579.0946427999297,579.0946427999297,579.0946427999297,579.0946427999297,580.0944373999955,580.0944373999955,580.8632610000204,,,,,x,1,0.7549002999439836,None,564955,001,2024-10-17_11h49.46.040,motor_sequence,2024.2.1post4,59.923908655285594,2024-10-17 11h50.02.882028 +0530,
-50,x,32,32,5,x,1,0.4551337000448257,None,,,,,5,32,32,1,580.877773599932,,580.86386329995,580.877773599932,581.8772194000194,581.8772194000194,581.8772194000194,581.8772194000194,581.8772194000194,582.8773289999226,582.8773289999226,583.3462157999165,,,,,x,1,0.4551337000448257,None,564955,001,2024-10-17_11h49.46.040,motor_sequence,2024.2.1post4,59.923908655285594,2024-10-17 11h50.02.882028 +0530,
-50,x,33,33,6,x,1,0.5493299999507144,None,,,,,6,33,33,1,583.3606322000269,,583.346800899948,583.3606322000269,584.3606069999514,584.3606069999514,584.3606069999514,584.3606069999514,584.3606069999514,585.3605399000226,585.3605399000226,585.912736200029,,,,,x,1,0.5493299999507144,None,564955,001,2024-10-17_11h49.46.040,motor_sequence,2024.2.1post4,59.923908655285594,2024-10-17 11h50.02.882028 +0530,
-150,z,34,34,7,z,1,0.7503322999691591,None,,,,,7,34,34,0,585.9269291999517,,585.91330200003,585.9269291999517,586.9271272999467,586.9271272999467,586.9271272999467,586.9271272999467,586.9271272999467,587.9268868999789,587.9268868999789,588.6795868999325,,,,,z,1,0.7503322999691591,None,564955,001,2024-10-17_11h49.46.040,motor_sequence,2024.2.1post4,59.923908655285594,2024-10-17 11h50.02.882028 +0530,
-50,x,35,35,7,x,1,0.616415899945423,None,,,,,7,35,35,1,588.693381799967,,588.6801453999942,588.693381799967,589.6931425000075,589.6931425000075,589.6931425000075,589.6931425000075,589.6931425000075,590.6927195999306,590.6927195999306,591.3124426000286,,,,,x,1,0.616415899945423,None,564955,001,2024-10-17_11h49.46.040,motor_sequence,2024.2.1post4,59.923908655285594,2024-10-17 11h50.02.882028 +0530,
-50,x,36,36,8,x,1,0.547093200031668,None,,,,,8,36,36,1,591.3262158000143,,591.3130318999756,591.3262158000143,592.3259736999171,592.3259736999171,592.3259736999171,592.3259736999171,592.3259736999171,593.3262157000136,593.3262157000136,593.8784175999463,,,,,x,1,0.547093200031668,None,564955,001,2024-10-17_11h49.46.040,motor_sequence,2024.2.1post4,59.923908655285594,2024-10-17 11h50.02.882028 +0530,
150,v,37,37,10,v,1,1.3629681000020355,None,,,,,10,37,37,3,593.8930362999672,,593.8789925000165,593.8930362999672,594.8923135999357,594.8923135999357,594.8923135999357,594.8923135999357,594.8923135999357,595.8927505000029,595.8927505000029,597.2612020999659,,,,,v,1,1.3629681000020355,None,564955,001,2024-10-17_11h49.46.040,motor_sequence,2024.2.1post4,59.923908655285594,2024-10-17 11h50.02.882028 +0530,
-150,z,38,38,8,z,1,0.8482106999726966,None,,,,,8,38,38,0,597.2757291999878,,597.2618044000119,597.2757291999878,598.2755426999647,598.2755426999647,598.2755426999647,598.2755426999647,598.2755426999647,599.2751966000069,599.2751966000069,600.1275396000128,,,,,z,1,0.8482106999726966,None,564955,001,2024-10-17_11h49.46.040,motor_sequence,2024.2.1post4,59.923908655285594,2024-10-17 11h50.02.882028 +0530,
150,v,39,39,11,v,1,0.763455200009048,None,,,,,11,39,39,3,600.1419015999418,,600.128132599988,600.1419015999418,601.1416015999857,601.1416015999857,601.1416015999857,601.1416015999857,601.1416015999857,602.1416317999829,602.1416317999829,602.9107576999813,,,,,v,1,0.763455200009048,None,564955,001,2024-10-17_11h49.46.040,motor_sequence,2024.2.1post4,59.923908655285594,2024-10-17 11h50.02.882028 +0530,
50,c,40,40,10,c,1,0.9783395999111235,None,,,,,10,40,40,2,602.9249388999306,,602.9113490999443,602.9249388999306,603.9249210000271,603.9249210000271,603.9249210000271,603.9249210000271,603.9249210000271,604.9246472999221,604.9246472999221,605.9099268999416,,,,,c,1,0.9783395999111235,None,564955,001,2024-10-17_11h49.46.040,motor_sequence,2024.2.1post4,59.923908655285594,2024-10-17 11h50.02.882028 +0530,
50,c,41,41,11,c,1,0.7554612999083474,None,,,,,11,41,41,2,605.9243730999297,,605.910494199954,605.9243730999297,606.9252957999706,606.9252957999706,606.9252957999706,606.9252957999706,606.9252957999706,607.9244627000298,607.9244627000298,608.6933027999476,,,,,c,1,0.7554612999083474,None,564955,001,2024-10-17_11h49.46.040,motor_sequence,2024.2.1post4,59.923908655285594,2024-10-17 11h50.02.882028 +0530,
50,c,42,42,12,c,1,0.5501919001108035,None,,,,,12,42,42,2,608.7073403999675,,608.6938961999258,608.7073403999675,609.7072794999694,609.7072794999694,609.7072794999694,609.7072794999694,609.7072794999694,610.7070238000015,610.7070238000015,611.2599369999953,,,,,c,1,0.5501919001108035,None,564955,001,2024-10-17_11h49.46.040,motor_sequence,2024.2.1post4,59.923908655285594,2024-10-17 11h50.02.882028 +0530,
