study_word,thisN,thisTrialN,thisRepN,slider.response,slider.rt,test_word,Reference,old_new,textbox.text,mouse.x,mouse.y,mouse.leftButton,mouse.midButton,mouse.rightButton,mouse.time,mouse.clicked_name,trials.thisRepN,trials.thisTrialN,trials.thisN,trials.thisIndex,trials_2.thisRepN,trials_2.thisTrialN,trials_2.thisN,trials_2.thisIndex,thisRow.t,notes,trial.started,text.started,slider.started,trial.stopped,trials.slider.response,trials.slider.rt,test.started,text_2.started,textbox.started,text_3.started,mouse.started,test.stopped,trials_2.textbox.text,trials_2.mouse.x,trials_2.mouse.y,trials_2.mouse.leftButton,trials_2.mouse.midButton,trials_2.mouse.rightButton,trials_2.mouse.time,trials_2.mouse.clicked_name,participant,session,date,expName,psychopyVersion,frameRate,expStart,
Police,0,0,0,1.016,4.424576199846342,,,,,,,,,,,,0,0,0,12,,,,,0.04812499997206032,,0.025302999885752797,0.04812499997206032,0.04812499997206032,4.466208799974993,1.016,4.424576199846342,,,,,,,,,,,,,,,P3_654977,001,2024-11-02_14h19.38.193,word_priming,2024.2.1post4,59.540537602026006,2024-11-02 14h19.51.638586 +0530,
Pastry,1,1,0,1.016,1.6440781001001596,,,,,,,,,,,,0,1,1,9,,,,,4.481549399904907,,4.471655000001192,4.481549399904907,4.481549399904907,6.132630999898538,1.016,1.6440781001001596,,,,,,,,,,,,,,,P3_654977,001,2024-11-02_14h19.38.193,word_priming,2024.2.1post4,59.540537602026006,2024-11-02 14h19.51.638586 +0530,
board,2,2,0,1.016,1.0643976000137627,,,,,,,,,,,,0,2,2,4,,,,,6.148245600052178,,6.136108299950138,6.148245600052178,6.148245600052178,7.215537399984896,1.016,1.0643976000137627,,,,,,,,,,,,,,,P3_654977,001,2024-11-02_14h19.38.193,word_priming,2024.2.1post4,59.540537602026006,2024-11-02 14h19.51.638586 +0530,
Laptop,3,3,0,1.016,0.9798084001522511,,,,,,,,,,,,0,3,3,5,,,,,7.231190300080925,,7.219412199920043,7.231190300080925,7.231190300080925,8.216124499915168,1.016,0.9798084001522511,,,,,,,,,,,,,,,P3_654977,001,2024-11-02_14h19.38.193,word_priming,2024.2.1post4,59.540537602026006,2024-11-02 14h19.51.638586 +0530,
Keys,4,4,0,1.016,0.9625806000549346,,,,,,,,,,,,0,4,4,13,,,,,8.231097900075838,,8.220339499879628,8.231097900075838,8.231097900075838,9.199872199911624,1.016,0.9625806000549346,,,,,,,,,,,,,,,P3_654977,001,2024-11-02_14h19.38.193,word_priming,2024.2.1post4,59.540537602026006,2024-11-02 14h19.51.638586 +0530,
mouse,5,5,0,1.016,0.9299053999129683,,,,,,,,,,,,0,5,5,8,,,,,9.214392999885604,,9.202712300000712,9.214392999885604,9.214392999885604,10.14887039992027,1.016,0.9299053999129683,,,,,,,,,,,,,,,P3_654977,001,2024-11-02_14h19.38.193,word_priming,2024.2.1post4,59.540537602026006,2024-11-02 14h19.51.638586 +0530,
Poster,6,6,0,1.016,1.0155257999431342,,,,,,,,,,,,0,6,6,14,,,,,10.164452200056985,,10.150727499974892,10.164452200056985,10.164452200056985,11.182210099883378,1.016,1.0155257999431342,,,,,,,,,,,,,,,P3_654977,001,2024-11-02_14h19.38.193,word_priming,2024.2.1post4,59.540537602026006,2024-11-02 14h19.51.638586 +0530,
phone,7,7,0,1.016,1.5450626998208463,,,,,,,,,,,,0,7,7,2,,,,,11.197471600025892,,11.187717899912968,11.197471600025892,11.197471600025892,12.748901899904013,1.016,1.5450626998208463,,,,,,,,,,,,,,,P3_654977,001,2024-11-02_14h19.38.193,word_priming,2024.2.1post4,59.540537602026006,2024-11-02 14h19.51.638586 +0530,
Chart,8,8,0,1.016,1.263251299969852,,,,,,,,,,,,0,8,8,6,,,,,12.763984000077471,,12.752220900030807,12.763984000077471,12.763984000077471,14.032466300064698,1.016,1.263251299969852,,,,,,,,,,,,,,,P3_654977,001,2024-11-02_14h19.38.193,word_priming,2024.2.1post4,59.540537602026006,2024-11-02 14h19.51.638586 +0530,
T-shirt,9,9,0,1.016,1.076809599995613,,,,,,,,,,,,0,9,9,7,,,,,14.04685949999839,,14.038324299966916,14.04685949999839,14.04685949999839,15.131539300084114,1.016,1.076809599995613,,,,,,,,,,,,,,,P3_654977,001,2024-11-02_14h19.38.193,word_priming,2024.2.1post4,59.540537602026006,2024-11-02 14h19.51.638586 +0530,
marble,10,10,0,1.016,1.2149074000772089,,,,,,,,,,,,0,10,10,3,,,,,15.147080400027335,,15.133424100000411,15.147080400027335,15.147080400027335,16.364618399878964,1.016,1.2149074000772089,,,,,,,,,,,,,,,P3_654977,001,2024-11-02_14h19.38.193,word_priming,2024.2.1post4,59.540537602026006,2024-11-02 14h19.51.638586 +0530,
Case,11,11,0,1.016,1.4651971000712365,,,,,,,,,,,,0,11,11,10,,,,,16.38002140005119,,16.366507299942896,16.38002140005119,16.38002140005119,17.848186200018972,1.016,1.4651971000712365,,,,,,,,,,,,,,,P3_654977,001,2024-11-02_14h19.38.193,word_priming,2024.2.1post4,59.540537602026006,2024-11-02 14h19.51.638586 +0530,
Cruise,12,12,0,1.016,1.04860830004327,,,,,,,,,,,,0,12,12,11,,,,,17.863275199895725,,17.850132399937138,17.863275199895725,17.863275199895725,18.914909499930218,1.016,1.04860830004327,,,,,,,,,,,,,,,P3_654977,001,2024-11-02_14h19.38.193,word_priming,2024.2.1post4,59.540537602026006,2024-11-02 14h19.51.638586 +0530,
book ,13,13,0,1.016,1.147588999941945,,,,,,,,,,,,0,13,13,0,,,,,18.92982909991406,,18.917524999938905,18.92982909991406,18.92982909991406,20.080972499912605,1.016,1.147588999941945,,,,,,,,,,,,,,,P3_654977,001,2024-11-02_14h19.38.193,word_priming,2024.2.1post4,59.540537602026006,2024-11-02 14h19.51.638586 +0530,
cushion,14,14,0,1.016,1.6158503000624478,,,,,,,,,,,,0,14,14,1,,,,,20.096089700004086,,20.082884300034493,20.096089700004086,20.096089700004086,21.71438489994034,1.016,1.6158503000624478,,,,,,,,,,,,,,,P3_654977,001,2024-11-02_14h19.38.193,word_priming,2024.2.1post4,59.540537602026006,2024-11-02 14h19.51.638586 +0530,
,0,0,0,,,P_li_e,Police,old,police,[0.028],[-0.288],[1],[0],[0],[5.123702100012451],['text_3'],,,,,0,0,0,7,21.74558029999025,,,,,,,,21.724251499865204,21.74558029999025,21.74558029999025,21.74558029999025,0.00985379982739687,26.84873429988511,police,[0.028],[-0.288],[1],[0],[0],[5.123702100012451],['text_3'],P3_654977,001,2024-11-02_14h19.38.193,word_priming,2024.2.1post4,59.540537602026006,2024-11-02 14h19.51.638586 +0530,
,1,1,0,,,_ha_t,Chart,old,chart,[0.028],[-0.288],[1],[0],[0],[3.577458400046453],['text_3'],,,,,0,1,1,1,26.862271700054407,,,,,,,,26.851872799918056,26.862271700054407,26.862271700054407,26.862271700054407,0.002983700018376112,30.43016180000268,chart,[0.028],[-0.288],[1],[0],[0],[3.577458400046453],['text_3'],P3_654977,001,2024-11-02_14h19.38.193,word_priming,2024.2.1post4,59.540537602026006,2024-11-02 14h19.51.638586 +0530,
,2,2,0,,,_o_rd,Board,old,board,[0.028],[-0.288],[1],[0],[0],[7.528490300057456],['text_3'],,,,,0,2,2,10,30.4446207000874,,,,,,,,30.432537799933925,30.4446207000874,30.4446207000874,30.4446207000874,0.0022567000705748796,37.96191509999335,board,[0.028],[-0.288],[1],[0],[0],[7.528490300057456],['text_3'],P3_654977,001,2024-11-02_14h19.38.193,word_priming,2024.2.1post4,59.540537602026006,2024-11-02 14h19.51.638586 +0530,
,3,3,0,,,_ru_s_,Cruise,old,cruise,[0.028],[-0.288],[1],[0],[0],[4.496890700189397],['text_3'],,,,,0,3,3,6,37.977356699993834,,,,,,,,37.96447169990279,37.977356699993834,37.977356699993834,37.977356699993834,0.0024419999681413174,42.462168199941516,cruise,[0.028],[-0.288],[1],[0],[0],[4.496890700189397],['text_3'],P3_654977,001,2024-11-02_14h19.38.193,word_priming,2024.2.1post4,59.540537602026006,2024-11-02 14h19.51.638586 +0530,
,4,4,0,,,_ho_e,Phone,old,shore,[0.028],[-0.288],[1],[0],[0],[6.64400490000844],['text_3'],,,,,0,4,4,12,42.47692220006138,,,,,,,,42.46563240000978,42.47692220006138,42.47692220006138,42.47692220006138,0.003334800014272332,49.11018699989654,shore,[0.028],[-0.288],[1],[0],[0],[6.64400490000844],['text_3'],P3_654977,001,2024-11-02_14h19.38.193,word_priming,2024.2.1post4,59.540537602026006,2024-11-02 14h19.51.638586 +0530,
,5,5,0,,,P_nc_l,Pencil,new,pencil,[0.028],[-0.288],[1],[0],[0],[6.031041999813169],['text_3'],,,,,0,5,5,16,49.12600859999657,,,,,,,,49.11215079994872,49.12600859999657,49.12600859999657,49.12600859999657,0.0018726000562310219,55.14379550004378,pencil,[0.028],[-0.288],[1],[0],[0],[6.031041999813169],['text_3'],P3_654977,001,2024-11-02_14h19.38.193,word_priming,2024.2.1post4,59.540537602026006,2024-11-02 14h19.51.638586 +0530,
,6,6,0,,,_a_bl_,Marble,old ,marble,[0.028],[-0.288],[1],[0],[0],[5.363638099981472],['text_3'],,,,,0,6,6,11,55.15854460000992,,,,,,,,55.145663199946284,55.15854460000992,55.15854460000992,55.15854460000992,0.0017969999462366104,60.51027149986476,marble,[0.028],[-0.288],[1],[0],[0],[5.363638099981472],['text_3'],P3_654977,001,2024-11-02_14h19.38.193,word_priming,2024.2.1post4,59.540537602026006,2024-11-02 14h19.51.638586 +0530,
,7,7,0,,,C_s_io_,Cushion,old,cushion,[0.028],[-0.288],[1],[0],[0],[5.631218299968168],['text_3'],,,,,0,7,7,14,60.52495009987615,,,,,,,,60.512730200076476,60.52495009987615,60.52495009987615,60.52495009987615,0.0023487000726163387,66.14478129986674,cushion,[0.028],[-0.288],[1],[0],[0],[5.631218299968168],['text_3'],P3_654977,001,2024-11-02_14h19.38.193,word_priming,2024.2.1post4,59.540537602026006,2024-11-02 14h19.51.638586 +0530,
,8,8,0,,,K_y_,Keys,old,keys,[0.028],[-0.288],[1],[0],[0],[4.780951999826357],['text_3'],,,,,0,8,8,8,66.15711989998817,,,,,,,,66.14709210000001,66.15711989998817,66.15711989998817,66.15711989998817,0.002181099960580468,70.9289861000143,keys,[0.028],[-0.288],[1],[0],[0],[4.780951999826357],['text_3'],P3_654977,001,2024-11-02_14h19.38.193,word_priming,2024.2.1post4,59.540537602026006,2024-11-02 14h19.51.638586 +0530,
,9,9,0,,,L_pt_p,Laptop,old,laptop,[0.028],[-0.288],[1],[0],[0],[5.840594100067392],['text_3'],,,,,0,9,9,0,70.95593199995346,,,,,,,,70.93299790006131,70.95593199995346,70.95593199995346,70.95593199995346,0.003900399897247553,76.77466099988669,laptop,[0.028],[-0.288],[1],[0],[0],[5.840594100067392],['text_3'],P3_654977,001,2024-11-02_14h19.38.193,word_priming,2024.2.1post4,59.540537602026006,2024-11-02 14h19.51.638586 +0530,
,10,10,0,,,P_s_ry,Pastry,old,pastry,[0.028],[-0.288],[1],[0],[0],[4.879725399892777],['text_3'],,,,,0,10,10,4,76.7893950000871,,,,,,,,76.77733279997483,76.7893950000871,76.7893950000871,76.7893950000871,0.002523000119253993,81.65817900002003,pastry,[0.028],[-0.288],[1],[0],[0],[4.879725399892777],['text_3'],P3_654977,001,2024-11-02_14h19.38.193,word_priming,2024.2.1post4,59.540537602026006,2024-11-02 14h19.51.638586 +0530,
,11,11,0,,,Ta_l_,Table,new,tails,[0.028],[-0.288],[1],[0],[0],[6.414901299867779],['text_3'],,,,,0,11,11,15,81.67212180001661,,,,,,,,81.66183009999804,81.67212180001661,81.67212180001661,81.67212180001661,0.003406299976631999,88.07755309995264,tails,[0.028],[-0.288],[1],[0],[0],[6.414901299867779],['text_3'],P3_654977,001,2024-11-02_14h19.38.193,word_priming,2024.2.1post4,59.540537602026006,2024-11-02 14h19.51.638586 +0530,
,12,12,0,,,C_m_ra,Camera ,new,camera,[0.028],[-0.288],[1],[0],[0],[4.223672599997371],['text_3'],,,,,0,12,12,19,88.10399380000308,,,,,,,,88.08079020003788,88.10399380000308,88.10399380000308,88.10399380000308,0.003104100003838539,92.30532959988341,camera,[0.028],[-0.288],[1],[0],[0],[4.223672599997371],['text_3'],P3_654977,001,2024-11-02_14h19.38.193,word_priming,2024.2.1post4,59.540537602026006,2024-11-02 14h19.51.638586 +0530,
,13,13,0,,,_o_se,Mouse,old,horse,[0.028],[-0.288],[1],[0],[0],[5.578335300087929],['text_3'],,,,,0,13,13,3,92.32029219996184,,,,,,,,92.30892300000414,92.32029219996184,92.32029219996184,92.32029219996184,0.003419599961489439,97.88785679987632,horse,[0.028],[-0.288],[1],[0],[0],[5.578335300087929],['text_3'],P3_654977,001,2024-11-02_14h19.38.193,word_priming,2024.2.1post4,59.540537602026006,2024-11-02 14h19.51.638586 +0530,
,14,14,0,,,V_s_,Vase,new,vase,[0.028],[-0.288],[1],[0],[0],[4.4280419000424445],['text_3'],,,,,0,14,14,17,97.90322409989312,,,,,,,,97.89127540006302,97.90322409989312,97.90322409989312,97.90322409989312,0.0033440999686717987,102.32013310003094,vase,[0.028],[-0.288],[1],[0],[0],[4.4280419000424445],['text_3'],P3_654977,001,2024-11-02_14h19.38.193,word_priming,2024.2.1post4,59.540537602026006,2024-11-02 14h19.51.638586 +0530,
,15,15,0,,,_oo_,Book,old,food,[0.028],[-0.288],[1],[0],[0],[4.8471613000147045],['text_3'],,,,,0,15,15,13,102.33644860005006,,,,,,,,102.32201460003853,102.33644860005006,102.33644860005006,102.33644860005006,0.0017878999933600426,107.17011240008287,food,[0.028],[-0.288],[1],[0],[0],[4.8471613000147045],['text_3'],P3_654977,001,2024-11-02_14h19.38.193,word_priming,2024.2.1post4,59.540537602026006,2024-11-02 14h19.51.638586 +0530,
,16,16,0,,,P_st_r,Poster,old,pastry,[0.028],[-0.288],[1],[0],[0],[4.080498700030148],['text_3'],,,,,0,16,16,9,107.1862369000446,,,,,,,,107.17324279993773,107.1862369000446,107.1862369000446,107.1862369000446,0.00295259989798069,111.25489480001852,pastry,[0.028],[-0.288],[1],[0],[0],[4.080498700030148],['text_3'],P3_654977,001,2024-11-02_14h19.38.193,word_priming,2024.2.1post4,59.540537602026006,2024-11-02 14h19.51.638586 +0530,
,17,17,0,,,C_s_,Case,old,case,[0.028],[-0.288],[1],[0],[0],[4.959710400085896],['text_3'],,,,,0,17,17,5,111.28451439994387,,,,,,,,111.25878149992786,111.28451439994387,111.28451439994387,111.28451439994387,0.003711499972268939,116.21991520002484,case,[0.028],[-0.288],[1],[0],[0],[4.959710400085896],['text_3'],P3_654977,001,2024-11-02_14h19.38.193,word_priming,2024.2.1post4,59.540537602026006,2024-11-02 14h19.51.638586 +0530,
,18,18,0,,,T-_hi_t,T-shirt,old,tshirt,[0.028],[-0.288],[1],[0],[0],[5.7305553001351655],['text_3'],,,,,0,18,18,2,116.23419309989549,,,,,,,,116.22288760007359,116.23419309989549,116.23419309989549,116.23419309989549,0.0028190999291837215,121.95449579996057,tshirt,[0.028],[-0.288],[1],[0],[0],[5.7305553001351655],['text_3'],P3_654977,001,2024-11-02_14h19.38.193,word_priming,2024.2.1post4,59.540537602026006,2024-11-02 14h19.51.638586 +0530,
,19,19,0,,,Bo_t_e,Bottle,new,bottle,[0.028],[-0.288],[1],[0],[0],[4.409328800160438],['text_3'],,,,,0,19,19,18,121.98261020006612,,,,,,,,121.95821710000746,121.98261020006612,121.98261020006612,121.98261020006612,0.003621600102633238,126.36828340007924,bottle,[0.028],[-0.288],[1],[0],[0],[4.409328800160438],['text_3'],P3_654977,001,2024-11-02_14h19.38.193,word_priming,2024.2.1post4,59.540537602026006,2024-11-02 14h19.51.638586 +0530,
