thisN,thisTrialN,thisRepN,mouse.x,mouse.y,mouse.leftButton,mouse.midButton,mouse.rightButton,mouse.time,mouse.clicked_name,trials.thisRepN,trials.thisTrialN,trials.thisN,trials.thisIndex,thisRow.t,notes,num_distr,trial.started,fixation.started,target.started,mouse.started,trial.stopped,trials.mouse.x,trials.mouse.y,trials.mouse.leftButton,trials.mouse.midButton,trials.mouse.rightButton,trials.mouse.time,trials.mouse.clicked_name,participant,session,date,expName,psychopyVersion,frameRate,expStart,
0,0,0,[-0.278],[-0.448],[1],[0],[0],[2.7829429998528212],['target'],0,0,0,0,0.04656039993278682,,10,0.03326370008289814,0.04656039993278682,0.04656039993278682,0.03297680011019111,2.817133199889213,[-0.278],[-0.448],[1],[0],[0],[2.7829429998528212],['target'],617962,001,2024-10-04_11h17.26.504,visual_search1,2024.2.1post4,59.90628259529839,2024-10-04 11h17.31.478449 +0530,
1,0,1,[0.08],[0.434],[1],[0],[0],[1.4248731001280248],['target'],1,0,1,0,2.863058399874717,,10,2.8392846998758614,2.863058399874717,2.863058399874717,0.02196749998256564,4.264528499916196,[0.08],[0.434],[1],[0],[0],[1.4248731001280248],['target'],617962,001,2024-10-04_11h17.26.504,visual_search1,2024.2.1post4,59.90628259529839,2024-10-04 11h17.31.478449 +0530,
2,0,2,[-0.378],[0.008],[1],[0],[0],[2.1080222001764923],['target'],2,0,2,0,4.312895300099626,,10,4.289999299915507,4.312895300099626,4.312895300099626,0.025286799995228648,6.398408399894834,[-0.378],[0.008],[1],[0],[0],[2.1080222001764923],['target'],617962,001,2024-10-04_11h17.26.504,visual_search1,2024.2.1post4,59.90628259529839,2024-10-04 11h17.31.478449 +0530,
3,0,3,[0.122],[0.156],[1],[0],[0],[1.5229267000686377],['target'],3,0,3,0,6.42940040002577,,5,6.407488500000909,6.42940040002577,6.42940040002577,0.008916799910366535,7.930755499983206,[0.122],[0.156],[1],[0],[0],[1.5229267000686377],['target'],617962,001,2024-10-04_11h17.26.504,visual_search1,2024.2.1post4,59.90628259529839,2024-10-04 11h17.31.478449 +0530,
4,0,4,[-0.01],[0.314],[1],[0],[0],[1.3341300999745727],['target'],4,0,4,0,7.962061800062656,,10,7.949099600082263,7.962061800062656,7.962061800062656,0.018263300182297826,9.284006600035354,[-0.01],[0.314],[1],[0],[0],[1.3341300999745727],['target'],617962,001,2024-10-04_11h17.26.504,visual_search1,2024.2.1post4,59.90628259529839,2024-10-04 11h17.31.478449 +0530,
5,0,5,[-0.158],[0.234],[1],[0],[0],[2.7423219999764115],['target'],5,0,5,0,9.312048099935055,,10,9.304531200090423,9.312048099935055,9.312048099935055,0.020277699921280146,12.047212899895385,[-0.158],[0.234],[1],[0],[0],[2.7423219999764115],['target'],617962,001,2024-10-04_11h17.26.504,visual_search1,2024.2.1post4,59.90628259529839,2024-10-04 11h17.31.478449 +0530,
6,0,6,[0.166],[0.08],[1],[0],[0],[2.750733100110665],['target'],6,0,6,0,12.078272399958223,,10,12.064406800083816,12.078272399958223,12.078272399958223,0.017082199919968843,14.815959600033239,[0.166],[0.08],[1],[0],[0],[2.750733100110665],['target'],617962,001,2024-10-04_11h17.26.504,visual_search1,2024.2.1post4,59.90628259529839,2024-10-04 11h17.31.478449 +0530,
7,0,7,[0.51],[0.11],[1],[0],[0],[1.320853800047189],['target'],7,0,7,0,14.844697499880567,,5,14.826216799905524,14.844697499880567,14.844697499880567,0.010066099930554628,16.147524500032887,[0.51],[0.11],[1],[0],[0],[1.320853800047189],['target'],617962,001,2024-10-04_11h17.26.504,visual_search1,2024.2.1post4,59.90628259529839,2024-10-04 11h17.31.478449 +0530,
8,0,8,[0.356],[0.372],[1],[0],[0],[1.3898362999316305],['target'],8,0,8,0,16.177941600093618,,5,16.156820399919525,16.177941600093618,16.177941600093618,0.009176900144666433,17.547129899961874,[0.356],[0.372],[1],[0],[0],[1.3898362999316305],['target'],617962,001,2024-10-04_11h17.26.504,visual_search1,2024.2.1post4,59.90628259529839,2024-10-04 11h17.31.478449 +0530,
9,0,9,[-0.332],[0.25],[1],[0],[0],[1.5235729000996798],['target'],9,0,9,0,17.59445090009831,,10,17.57246880000457,17.59445090009831,17.59445090009831,0.025193999987095594,19.096573499962687,[-0.332],[0.25],[1],[0],[0],[1.5235729000996798],['target'],617962,001,2024-10-04_11h17.26.504,visual_search1,2024.2.1post4,59.90628259529839,2024-10-04 11h17.31.478449 +0530,
10,0,10,[0.45],[0.28],[1],[0],[0],[1.4425920001231134],['target'],10,0,10,0,19.127479299902916,,10,19.11979139992036,19.127479299902916,19.127479299902916,0.022989199962466955,20.562766700051725,[0.45],[0.28],[1],[0],[0],[1.4425920001231134],['target'],617962,001,2024-10-04_11h17.26.504,visual_search1,2024.2.1post4,59.90628259529839,2024-10-04 11h17.31.478449 +0530,
11,0,11,[-0.354],[-0.158],[1],[0],[0],[1.7581772000994533],['target'],11,0,11,0,20.593895999947563,,5,20.5717271999456,20.593895999947563,20.593895999947563,0.008834599982947111,22.33069820003584,[-0.354],[-0.158],[1],[0],[0],[1.7581772000994533],['target'],617962,001,2024-10-04_11h17.26.504,visual_search1,2024.2.1post4,59.90628259529839,2024-10-04 11h17.31.478449 +0530,
12,0,12,[0.372],[0.33],[1],[0],[0],[1.28037349996157],['target'],12,0,12,0,22.36016899999231,,10,22.35013830009848,22.36016899999231,22.36016899999231,0.01926049985922873,23.631126600084826,[0.372],[0.33],[1],[0],[0],[1.28037349996157],['target'],617962,001,2024-10-04_11h17.26.504,visual_search1,2024.2.1post4,59.90628259529839,2024-10-04 11h17.31.478449 +0530,
13,0,13,[0.45],[0.194],[1],[0],[0],[1.6202100000809878],['target'],13,0,13,0,23.660608999896795,,5,23.64270199998282,23.660608999896795,23.660608999896795,0.011357600102201104,25.263358999975026,[0.45],[0.194],[1],[0],[0],[1.6202100000809878],['target'],617962,001,2024-10-04_11h17.26.504,visual_search1,2024.2.1post4,59.90628259529839,2024-10-04 11h17.31.478449 +0530,
14,0,14,[0.354],[-0.436],[1],[0],[0],[2.1285343999043107],['target'],14,0,14,0,25.293612099951133,,10,25.283774599898607,25.293612099951133,25.293612099951133,0.02029199991375208,27.412968300050125,[0.354],[-0.436],[1],[0],[0],[2.1285343999043107],['target'],617962,001,2024-10-04_11h17.26.504,visual_search1,2024.2.1post4,59.90628259529839,2024-10-04 11h17.31.478449 +0530,
15,0,15,[-0.402],[-0.46],[1],[0],[0],[3.450393100036308],['target'],15,0,15,0,27.443233399884775,,5,27.427097500069067,27.443233399884775,27.443233399884775,0.013942399993538857,30.8777989000082,[-0.402],[-0.46],[1],[0],[0],[3.450393100036308],['target'],617962,001,2024-10-04_11h17.26.504,visual_search1,2024.2.1post4,59.90628259529839,2024-10-04 11h17.31.478449 +0530,
16,0,16,[-0.322],[-0.192],[1],[0],[0],[1.6659578999970108],['target'],16,0,16,0,30.90898200008087,,10,30.895863800076768,30.90898200008087,30.90898200008087,0.01797179994173348,32.56250429991633,[-0.322],[-0.192],[1],[0],[0],[1.6659578999970108],['target'],617962,001,2024-10-04_11h17.26.504,visual_search1,2024.2.1post4,59.90628259529839,2024-10-04 11h17.31.478449 +0530,
17,0,17,[-0.174],[0.354],[1],[0],[0],[2.3878024998120964],['target'],17,0,17,0,32.59258530009538,,5,32.5742339999415,32.59258530009538,32.59258530009538,0.011532700154930353,34.96251800004393,[-0.174],[0.354],[1],[0],[0],[2.3878024998120964],['target'],617962,001,2024-10-04_11h17.26.504,visual_search1,2024.2.1post4,59.90628259529839,2024-10-04 11h17.31.478449 +0530,
18,0,18,[0.476],[0.308],[1],[0],[0],[1.5768994998652488],['target'],18,0,18,0,35.008618199964985,,10,34.985730099957436,35.008618199964985,35.008618199964985,0.023023099871352315,36.56340979994275,[0.476],[0.308],[1],[0],[0],[1.5768994998652488],['target'],617962,001,2024-10-04_11h17.26.504,visual_search1,2024.2.1post4,59.90628259529839,2024-10-04 11h17.31.478449 +0530,
19,0,19,[0.256],[0.392],[1],[0],[0],[1.56513089989312],['target'],19,0,19,0,36.592122399946675,,5,36.578546500066295,36.592122399946675,36.592122399946675,0.0149444998241961,38.14427349995822,[0.256],[0.392],[1],[0],[0],[1.56513089989312],['target'],617962,001,2024-10-04_11h17.26.504,visual_search1,2024.2.1post4,59.90628259529839,2024-10-04 11h17.31.478449 +0530,
20,0,20,[-0.124],[-0.288],[1],[0],[0],[1.88265739986673],['target'],20,0,20,0,38.17497060005553,,10,38.16189599991776,38.17497060005553,38.17497060005553,0.017479199916124344,40.04519319999963,[-0.124],[-0.288],[1],[0],[0],[1.88265739986673],['target'],617962,001,2024-10-04_11h17.26.504,visual_search1,2024.2.1post4,59.90628259529839,2024-10-04 11h17.31.478449 +0530,
21,0,21,[0.448],[-0.232],[1],[0],[0],[1.8749731997959316],['target'],21,0,21,0,40.07510389992967,,5,40.05385580006987,40.07510389992967,40.07510389992967,0.008539199829101562,41.92960219993256,[0.448],[-0.232],[1],[0],[0],[1.8749731997959316],['target'],617962,001,2024-10-04_11h17.26.504,visual_search1,2024.2.1post4,59.90628259529839,2024-10-04 11h17.31.478449 +0530,
22,0,22,[0.214],[-0.192],[1],[0],[0],[1.3878999999724329],['target'],22,0,22,0,41.95847330009565,,5,41.94118359987624,41.95847330009565,41.95847330009565,0.011386699974536896,43.3298666998744,[0.214],[-0.192],[1],[0],[0],[1.3878999999724329],['target'],617962,001,2024-10-04_11h17.26.504,visual_search1,2024.2.1post4,59.90628259529839,2024-10-04 11h17.31.478449 +0530,
23,0,23,[-0.098],[-0.378],[1],[0],[0],[1.5664915998931974],['target'],23,0,23,0,43.35791509994306,,5,43.344106500037014,43.35791509994306,43.35791509994306,0.013926199870184064,44.91124349995516,[-0.098],[-0.378],[1],[0],[0],[1.5664915998931974],['target'],617962,001,2024-10-04_11h17.26.504,visual_search1,2024.2.1post4,59.90628259529839,2024-10-04 11h17.31.478449 +0530,
24,0,24,[-0.3],[0.016],[1],[0],[0],[1.4114697999320924],['target'],24,0,24,0,44.94082230003551,,10,44.932534399908036,44.94082230003551,44.94082230003551,0.021106800064444542,46.34457499999553,[-0.3],[0.016],[1],[0],[0],[1.4114697999320924],['target'],617962,001,2024-10-04_11h17.26.504,visual_search1,2024.2.1post4,59.90628259529839,2024-10-04 11h17.31.478449 +0530,
25,0,25,[-0.428],[-0.068],[1],[0],[0],[1.7155816999729723],['target'],25,0,25,0,46.37402349989861,,5,46.35946510010399,46.37402349989861,46.37402349989861,0.014612199971452355,48.07549780001864,[-0.428],[-0.068],[1],[0],[0],[1.7155816999729723],['target'],617962,001,2024-10-04_11h17.26.504,visual_search1,2024.2.1post4,59.90628259529839,2024-10-04 11h17.31.478449 +0530,
26,0,26,[0.258],[0.328],[1],[0],[0],[2.2640438999515027],['target'],26,0,26,0,48.12350169988349,,10,48.0955554000102,48.12350169988349,48.12350169988349,0.019926399923861027,50.36005389993079,[0.258],[0.328],[1],[0],[0],[2.2640438999515027],['target'],617962,001,2024-10-04_11h17.26.504,visual_search1,2024.2.1post4,59.90628259529839,2024-10-04 11h17.31.478449 +0530,
27,0,27,[0.07],[0.31],[1],[0],[0],[1.1046805998776108],['target'],27,0,27,0,50.39003950008191,,5,50.37035260000266,50.39003950008191,50.39003950008191,0.010090700117871165,51.4754989000503,[0.07],[0.31],[1],[0],[0],[1.1046805998776108],['target'],617962,001,2024-10-04_11h17.26.504,visual_search1,2024.2.1post4,59.90628259529839,2024-10-04 11h17.31.478449 +0530,
28,0,28,[0.248],[0.35],[1],[0],[0],[1.053806999931112],['target'],28,0,28,0,51.50697420001961,,5,51.48899920005351,51.50697420001961,51.50697420001961,0.013371599838137627,52.543299600016326,[0.248],[0.35],[1],[0],[0],[1.053806999931112],['target'],617962,001,2024-10-04_11h17.26.504,visual_search1,2024.2.1post4,59.90628259529839,2024-10-04 11h17.31.478449 +0530,
29,0,29,[-0.25],[0.39],[1],[0],[0],[1.4293696000240743],['target'],29,0,29,0,52.57322090002708,,10,52.56433709990233,52.57322090002708,52.57322090002708,0.02088620001450181,53.99441529996693,[-0.25],[0.39],[1],[0],[0],[1.4293696000240743],['target'],617962,001,2024-10-04_11h17.26.504,visual_search1,2024.2.1post4,59.90628259529839,2024-10-04 11h17.31.478449 +0530,
30,0,30,[-0.084],[0.134],[1],[0],[0],[1.4869741001166403],['target'],30,0,30,0,54.02355990000069,,5,54.0043069999665,54.02355990000069,54.02355990000069,0.009695999789983034,55.49160060007125,[-0.084],[0.134],[1],[0],[0],[1.4869741001166403],['target'],617962,001,2024-10-04_11h17.26.504,visual_search1,2024.2.1post4,59.90628259529839,2024-10-04 11h17.31.478449 +0530,
31,0,31,[0.406],[0.466],[1],[0],[0],[8.776885200059041],['target'],31,0,31,0,55.523049799958244,,10,55.512776700081304,55.523049799958244,55.523049799958244,0.021095900097861886,64.29008339997381,[0.406],[0.466],[1],[0],[0],[8.776885200059041],['target'],617962,001,2024-10-04_11h17.26.504,visual_search1,2024.2.1post4,59.90628259529839,2024-10-04 11h17.31.478449 +0530,
32,0,32,[-0.466],[-0.222],[1],[0],[0],[1.8754271001089364],['target'],32,0,32,0,64.30566009995528,,5,64.29885770007968,64.30566009995528,64.30566009995528,0.00863629998639226,66.17483170004562,[-0.466],[-0.222],[1],[0],[0],[1.8754271001089364],['target'],617962,001,2024-10-04_11h17.26.504,visual_search1,2024.2.1post4,59.90628259529839,2024-10-04 11h17.31.478449 +0530,
33,0,33,[0.324],[-0.316],[1],[0],[0],[2.4118494000285864],['target'],33,0,33,0,66.22174170007929,,10,66.19561380008236,66.22174170007929,66.22174170007929,0.02044619992375374,68.60805770009756,[0.324],[-0.316],[1],[0],[0],[2.4118494000285864],['target'],617962,001,2024-10-04_11h17.26.504,visual_search1,2024.2.1post4,59.90628259529839,2024-10-04 11h17.31.478449 +0530,
34,0,34,[-0.272],[-0.274],[1],[0],[0],[1.6290619000792503],['target'],34,0,34,0,68.63796230009757,,10,68.6276984999422,68.63796230009757,68.63796230009757,0.01950369984842837,70.25725880009122,[-0.272],[-0.274],[1],[0],[0],[1.6290619000792503],['target'],617962,001,2024-10-04_11h17.26.504,visual_search1,2024.2.1post4,59.90628259529839,2024-10-04 11h17.31.478449 +0530,
35,0,35,[0.178],[-0.014],[1],[0],[0],[1.362958300160244],['target'],35,0,35,0,70.28736139996909,,10,70.27854739991017,70.28736139996909,70.28736139996909,0.02111119986511767,71.64219500008039,[0.178],[-0.014],[1],[0],[0],[1.362958300160244],['target'],617962,001,2024-10-04_11h17.26.504,visual_search1,2024.2.1post4,59.90628259529839,2024-10-04 11h17.31.478449 +0530,
36,0,36,[-0.422],[-0.176],[1],[0],[0],[1.430354000069201],['target'],36,0,36,0,71.67095960001461,,10,71.66046810010448,71.67095960001461,71.67095960001461,0.018075200030580163,73.09148849989288,[-0.422],[-0.176],[1],[0],[0],[1.430354000069201],['target'],617962,001,2024-10-04_11h17.26.504,visual_search1,2024.2.1post4,59.90628259529839,2024-10-04 11h17.31.478449 +0530,
37,0,37,[0.356],[-0.064],[1],[0],[0],[1.5692225000821054],['target'],37,0,37,0,73.12083950010128,,5,73.10307569988072,73.12083950010128,73.12083950010128,0.011369599960744381,74.67262229998596,[0.356],[-0.064],[1],[0],[0],[1.5692225000821054],['target'],617962,001,2024-10-04_11h17.26.504,visual_search1,2024.2.1post4,59.90628259529839,2024-10-04 11h17.31.478449 +0530,
38,0,38,[0.174],[0.484],[1],[0],[0],[7.7425538001116365],['target'],38,0,38,0,74.68767690006644,,5,74.68141030007973,74.68767690006644,74.68767690006644,0.008661200059577823,82.42460829997435,[0.174],[0.484],[1],[0],[0],[7.7425538001116365],['target'],617962,001,2024-10-04_11h17.26.504,visual_search1,2024.2.1post4,59.90628259529839,2024-10-04 11h17.31.478449 +0530,
39,0,39,[0.438],[-0.224],[1],[0],[0],[2.453207500046119],['target'],39,0,39,0,82.45271290000528,,5,82.43611979996786,82.45271290000528,82.45271290000528,0.011330400127917528,84.89007969992235,[0.438],[-0.224],[1],[0],[0],[2.453207500046119],['target'],617962,001,2024-10-04_11h17.26.504,visual_search1,2024.2.1post4,59.90628259529839,2024-10-04 11h17.31.478449 +0530,
40,0,40,[0.34],[0.26],[1],[0],[0],[1.2187512000091374],['target'],40,0,40,0,84.91957739996724,,5,84.9034595999401,84.91957739996724,84.91957739996724,0.013198999920859933,86.12293819990009,[0.34],[0.26],[1],[0],[0],[1.2187512000091374],['target'],617962,001,2024-10-04_11h17.26.504,visual_search1,2024.2.1post4,59.90628259529839,2024-10-04 11h17.31.478449 +0530,
41,0,41,[0.256],[0.222],[1],[0],[0],[1.8712915999349207],['target'],41,0,41,0,86.15238499990664,,5,86.13416539994068,86.15238499990664,86.15238499990664,0.011035500094294548,88.00595679995604,[0.256],[0.222],[1],[0],[0],[1.8712915999349207],['target'],617962,001,2024-10-04_11h17.26.504,visual_search1,2024.2.1post4,59.90628259529839,2024-10-04 11h17.31.478449 +0530,
42,0,42,[-0.234],[-0.05],[1],[0],[0],[1.5032230000942945],['target'],42,0,42,0,88.03507969994098,,5,88.0167894999031,88.03507969994098,88.03507969994098,0.010642200009897351,89.520350900013,[-0.234],[-0.05],[1],[0],[0],[1.5032230000942945],['target'],617962,001,2024-10-04_11h17.26.504,visual_search1,2024.2.1post4,59.90628259529839,2024-10-04 11h17.31.478449 +0530,
43,0,43,[-0.016],[0.484],[1],[0],[0],[1.8136221999302506],['target'],43,0,43,0,89.55164809990674,,10,89.54008219996467,89.55164809990674,89.55164809990674,0.019623899832367897,91.3541315998882,[-0.016],[0.484],[1],[0],[0],[1.8136221999302506],['target'],617962,001,2024-10-04_11h17.26.504,visual_search1,2024.2.1post4,59.90628259529839,2024-10-04 11h17.31.478449 +0530,
44,0,44,[-0.114],[-0.228],[1],[0],[0],[2.815812300192192],['target'],44,0,44,0,91.3852510000579,,10,91.37270689988509,91.3852510000579,91.3852510000579,0.01836340012960136,94.18912229989655,[-0.114],[-0.228],[1],[0],[0],[2.815812300192192],['target'],617962,001,2024-10-04_11h17.26.504,visual_search1,2024.2.1post4,59.90628259529839,2024-10-04 11h17.31.478449 +0530,
45,0,45,[-0.066],[-0.404],[1],[0],[0],[3.113192099845037],['target'],45,0,45,0,94.21796809998341,,10,94.20703090005554,94.21796809998341,94.21796809998341,0.01774349994957447,97.32090290007181,[-0.066],[-0.404],[1],[0],[0],[3.113192099845037],['target'],617962,001,2024-10-04_11h17.26.504,visual_search1,2024.2.1post4,59.90628259529839,2024-10-04 11h17.31.478449 +0530,
46,0,46,[-0.28],[0.466],[1],[0],[0],[4.564467499963939],['target'],46,0,46,0,97.35086859995499,,10,97.33792020007968,97.35086859995499,97.35086859995499,0.016874399967491627,101.9027148000896,[-0.28],[0.466],[1],[0],[0],[4.564467499963939],['target'],617962,001,2024-10-04_11h17.26.504,visual_search1,2024.2.1post4,59.90628259529839,2024-10-04 11h17.31.478449 +0530,
47,0,47,[0.138],[0.028],[1],[0],[0],[1.3749241998884827],['target'],47,0,47,0,101.91761899995618,,5,101.91107979998924,101.91761899995618,101.91761899995618,0.008259799797087908,103.28639829996973,[0.138],[0.028],[1],[0],[0],[1.3749241998884827],['target'],617962,001,2024-10-04_11h17.26.504,visual_search1,2024.2.1post4,59.90628259529839,2024-10-04 11h17.31.478449 +0530,
48,0,48,[0.316],[0.386],[1],[0],[0],[1.4221445999573916],['target'],48,0,48,0,103.31668070005253,,5,103.29686619993299,103.31668070005253,103.31668070005253,0.010332400212064385,104.71941550006159,[0.316],[0.386],[1],[0],[0],[1.4221445999573916],['target'],617962,001,2024-10-04_11h17.26.504,visual_search1,2024.2.1post4,59.90628259529839,2024-10-04 11h17.31.478449 +0530,
49,0,49,[0.224],[-0.13],[1],[0],[0],[1.361997300060466],['target'],49,0,49,0,104.76636249991134,,10,104.74098029988818,104.76636249991134,104.76636249991134,0.021456300048157573,106.10372009989806,[0.224],[-0.13],[1],[0],[0],[1.361997300060466],['target'],617962,001,2024-10-04_11h17.26.504,visual_search1,2024.2.1post4,59.90628259529839,2024-10-04 11h17.31.478449 +0530,
50,0,50,[-0.196],[0.126],[1],[0],[0],[1.56459050020203],['target'],50,0,50,0,106.13362869992852,,10,106.12053330009803,106.13362869992852,106.13362869992852,0.01668010000139475,107.68563419999555,[-0.196],[0.126],[1],[0],[0],[1.56459050020203],['target'],617962,001,2024-10-04_11h17.26.504,visual_search1,2024.2.1post4,59.90628259529839,2024-10-04 11h17.31.478449 +0530,
51,0,51,[-0.294],[0.22],[1],[0],[0],[1.2299502999521792],['target'],51,0,51,0,107.71628460008651,,10,107.70605239993893,107.71628460008651,107.71628460008651,0.020264399936422706,108.93659919989295,[-0.294],[0.22],[1],[0],[0],[1.2299502999521792],['target'],617962,001,2024-10-04_11h17.26.504,visual_search1,2024.2.1post4,59.90628259529839,2024-10-04 11h17.31.478449 +0530,
52,0,52,[-0.02],[-0.016],[1],[0],[0],[3.158219499979168],['target'],52,0,52,0,108.98334979987703,,10,108.9601956999395,108.98334979987703,108.98334979987703,0.023375699995085597,112.11904349992983,[-0.02],[-0.016],[1],[0],[0],[3.158219499979168],['target'],617962,001,2024-10-04_11h17.26.504,visual_search1,2024.2.1post4,59.90628259529839,2024-10-04 11h17.31.478449 +0530,
53,0,53,[0.396],[-0.462],[1],[0],[0],[1.7244931999593973],['target'],53,0,53,0,112.14893639995717,,5,112.12825500010513,112.14893639995717,112.14893639995717,0.009072799934074283,113.85353339998983,[0.396],[-0.462],[1],[0],[0],[1.7244931999593973],['target'],617962,001,2024-10-04_11h17.26.504,visual_search1,2024.2.1post4,59.90628259529839,2024-10-04 11h17.31.478449 +0530,
54,0,54,[0.41],[-0.172],[1],[0],[0],[1.819508200045675],['target'],54,0,54,0,113.88254699995741,,5,113.86515549989417,113.88254699995741,113.88254699995741,0.011435699881985784,115.68506120005623,[0.41],[-0.172],[1],[0],[0],[1.819508200045675],['target'],617962,001,2024-10-04_11h17.26.504,visual_search1,2024.2.1post4,59.90628259529839,2024-10-04 11h17.31.478449 +0530,
55,0,55,[0.398],[0.486],[1],[0],[0],[3.445911700138822],['target'],55,0,55,0,115.71487960009836,,10,115.7044524999801,115.71487960009836,115.71487960009836,0.019247099990025163,119.1510421000421,[0.398],[0.486],[1],[0],[0],[3.445911700138822],['target'],617962,001,2024-10-04_11h17.26.504,visual_search1,2024.2.1post4,59.90628259529839,2024-10-04 11h17.31.478449 +0530,
56,0,56,[0.254],[-0.25],[1],[0],[0],[2.0800272999331355],['target'],56,0,56,0,119.19822650006972,,10,119.17255809996277,119.19822650006972,119.19822650006972,0.021336799953132868,121.25356450001709,[0.254],[-0.25],[1],[0],[0],[2.0800272999331355],['target'],617962,001,2024-10-04_11h17.26.504,visual_search1,2024.2.1post4,59.90628259529839,2024-10-04 11h17.31.478449 +0530,
57,0,57,[0.1],[0.172],[1],[0],[0],[1.5846126000396907],['target'],57,0,57,0,121.28187320008874,,5,121.26528630009852,121.28187320008874,121.28187320008874,0.011522699845954776,122.85031679994427,[0.1],[0.172],[1],[0],[0],[1.5846126000396907],['target'],617962,001,2024-10-04_11h17.26.504,visual_search1,2024.2.1post4,59.90628259529839,2024-10-04 11h17.31.478449 +0530,
58,0,58,[-0.078],[0.21],[1],[0],[0],[1.848291500005871],['target'],58,0,58,0,122.8811880000867,,10,122.86834700009786,122.8811880000867,122.8811880000867,0.017913700081408024,124.71733119990677,[-0.078],[0.21],[1],[0],[0],[1.848291500005871],['target'],617962,001,2024-10-04_11h17.26.504,visual_search1,2024.2.1post4,59.90628259529839,2024-10-04 11h17.31.478449 +0530,
59,0,59,[0.178],[0.298],[1],[0],[0],[1.8034204000141472],['target'],59,0,59,0,124.74754779995419,,5,124.72852450003847,124.74754779995419,124.74754779995419,0.01100110006518662,126.53246679995209,[0.178],[0.298],[1],[0],[0],[1.8034204000141472],['target'],617962,001,2024-10-04_11h17.26.504,visual_search1,2024.2.1post4,59.90628259529839,2024-10-04 11h17.31.478449 +0530,
60,0,60,[-0.28],[-0.076],[1],[0],[0],[3.9308321001008153],['target'],60,0,60,0,126.56385820009746,,10,126.55098560010083,126.56385820009746,126.56385820009746,0.018380700144916773,130.48237910005264,[-0.28],[-0.076],[1],[0],[0],[3.9308321001008153],['target'],617962,001,2024-10-04_11h17.26.504,visual_search1,2024.2.1post4,59.90628259529839,2024-10-04 11h17.31.478449 +0530,
61,0,61,[-0.114],[0.46],[1],[0],[0],[3.7793357998598367],['target'],61,0,61,0,130.51339279999956,,10,130.50218409998342,130.51339279999956,130.51339279999956,0.019687799969688058,134.28194050001912,[-0.114],[0.46],[1],[0],[0],[3.7793357998598367],['target'],617962,001,2024-10-04_11h17.26.504,visual_search1,2024.2.1post4,59.90628259529839,2024-10-04 11h17.31.478449 +0530,
62,0,62,[0.144],[-0.456],[1],[0],[0],[2.0900888999458402],['target'],62,0,62,0,134.31347989989445,,5,134.29129719990306,134.31347989989445,134.31347989989445,0.009252400137484074,136.38184339995496,[0.144],[-0.456],[1],[0],[0],[2.0900888999458402],['target'],617962,001,2024-10-04_11h17.26.504,visual_search1,2024.2.1post4,59.90628259529839,2024-10-04 11h17.31.478449 +0530,
63,0,63,[-0.234],[0.138],[1],[0],[0],[1.9825995999854058],['target'],63,0,63,0,136.4120743998792,,10,136.3993891000282,136.4120743998792,136.4120743998792,0.01744020008482039,138.3826957999263,[-0.234],[0.138],[1],[0],[0],[1.9825995999854058],['target'],617962,001,2024-10-04_11h17.26.504,visual_search1,2024.2.1post4,59.90628259529839,2024-10-04 11h17.31.478449 +0530,
64,0,64,[0.27],[-0.462],[1],[0],[0],[2.372021700022742],['target'],64,0,64,0,138.41214639996178,,5,138.39301529992372,138.41214639996178,138.41214639996178,0.010126899927854538,140.76568869990297,[0.27],[-0.462],[1],[0],[0],[2.372021700022742],['target'],617962,001,2024-10-04_11h17.26.504,visual_search1,2024.2.1post4,59.90628259529839,2024-10-04 11h17.31.478449 +0530,
65,0,65,[0.33],[-0.088],[1],[0],[0],[1.6548849001992494],['target'],65,0,65,0,140.79484810004942,,5,140.77628079988062,140.79484810004942,140.79484810004942,0.010424100095406175,142.4317646001,[0.33],[-0.088],[1],[0],[0],[1.6548849001992494],['target'],617962,001,2024-10-04_11h17.26.504,visual_search1,2024.2.1post4,59.90628259529839,2024-10-04 11h17.31.478449 +0530,
66,0,66,[0.05],[-0.454],[1],[0],[0],[2.1404184999410063],['target'],66,0,66,0,142.46208170009777,,5,142.44011349999346,142.46208170009777,142.46208170009777,0.008268000092357397,144.58123559993692,[0.05],[-0.454],[1],[0],[0],[2.1404184999410063],['target'],617962,001,2024-10-04_11h17.26.504,visual_search1,2024.2.1post4,59.90628259529839,2024-10-04 11h17.31.478449 +0530,
67,0,67,[-0.386],[-0.308],[1],[0],[0],[2.0210484000854194],['target'],67,0,67,0,144.61159610003233,,5,144.5920969999861,144.61159610003233,144.61159610003233,0.01067469990812242,146.61347489990294,[-0.386],[-0.308],[1],[0],[0],[2.0210484000854194],['target'],617962,001,2024-10-04_11h17.26.504,visual_search1,2024.2.1post4,59.90628259529839,2024-10-04 11h17.31.478449 +0530,
68,0,68,[-0.058],[0.378],[1],[0],[0],[2.6618311000056565],['target'],68,0,68,0,146.6444759001024,,10,146.6335984999314,146.6444759001024,146.6444759001024,0.020017500035464764,149.29586059995927,[-0.058],[0.378],[1],[0],[0],[2.6618311000056565],['target'],617962,001,2024-10-04_11h17.26.504,visual_search1,2024.2.1post4,59.90628259529839,2024-10-04 11h17.31.478449 +0530,
69,0,69,[-0.212],[0.466],[1],[0],[0],[2.3066315001342446],['target'],69,0,69,0,149.32734360010363,,5,149.30582139990292,149.32734360010363,149.32734360010363,0.009763800073415041,151.61285059992224,[-0.212],[0.466],[1],[0],[0],[2.3066315001342446],['target'],617962,001,2024-10-04_11h17.26.504,visual_search1,2024.2.1post4,59.90628259529839,2024-10-04 11h17.31.478449 +0530,
70,0,70,[0.296],[-0.008],[1],[0],[0],[1.879052700009197],['target'],70,0,70,0,151.64375240006484,,10,151.6322931998875,151.64375240006484,151.64375240006484,0.019334900192916393,153.5116828000173,[0.296],[-0.008],[1],[0],[0],[1.879052700009197],['target'],617962,001,2024-10-04_11h17.26.504,visual_search1,2024.2.1post4,59.90628259529839,2024-10-04 11h17.31.478449 +0530,
71,0,71,[0.33],[-0.154],[1],[0],[0],[1.7102621998637915],['target'],71,0,71,0,153.52746140002273,,5,153.52024440001696,153.52746140002273,153.52746140002273,0.00844189990311861,155.23099670000374,[0.33],[-0.154],[1],[0],[0],[1.7102621998637915],['target'],617962,001,2024-10-04_11h17.26.504,visual_search1,2024.2.1post4,59.90628259529839,2024-10-04 11h17.31.478449 +0530,
72,0,72,[0.4],[-0.428],[1],[0],[0],[3.445993300061673],['target'],72,0,72,0,155.26027609989978,,10,155.2492533000186,155.26027609989978,155.26027609989978,0.018114800099283457,158.69559539994225,[0.4],[-0.428],[1],[0],[0],[3.445993300061673],['target'],617962,001,2024-10-04_11h17.26.504,visual_search1,2024.2.1post4,59.90628259529839,2024-10-04 11h17.31.478449 +0530,
73,0,73,[0.352],[0.062],[1],[0],[0],[1.8127366001717746],['target'],73,0,73,0,158.7262806999497,,10,158.71554420003667,158.7262806999497,158.7262806999497,0.019846900133416057,160.52883909991942,[0.352],[0.062],[1],[0],[0],[1.8127366001717746],['target'],617962,001,2024-10-04_11h17.26.504,visual_search1,2024.2.1post4,59.90628259529839,2024-10-04 11h17.31.478449 +0530,
74,0,74,[0.43],[0.058],[1],[0],[0],[1.276009100023657],['target'],74,0,74,0,160.55968869989738,,5,160.53745639999397,160.55968869989738,160.55968869989738,0.008504300145432353,161.81394829996862,[0.43],[0.058],[1],[0],[0],[1.276009100023657],['target'],617962,001,2024-10-04_11h17.26.504,visual_search1,2024.2.1post4,59.90628259529839,2024-10-04 11h17.31.478449 +0530,
75,0,75,[0.244],[-0.164],[1],[0],[0],[1.6942074000835419],['target'],75,0,75,0,161.84264210006222,,10,161.83413579990156,161.84264210006222,161.84264210006222,0.020031800027936697,163.5286902000662,[0.244],[-0.164],[1],[0],[0],[1.6942074000835419],['target'],617962,001,2024-10-04_11h17.26.504,visual_search1,2024.2.1post4,59.90628259529839,2024-10-04 11h17.31.478449 +0530,
76,0,76,[-0.062],[-0.354],[1],[0],[0],[2.0424233998637646],['target'],76,0,76,0,163.5586804000195,,5,163.53723610006273,163.5586804000195,163.5586804000195,0.008450800087302923,165.58039860008284,[-0.062],[-0.354],[1],[0],[0],[2.0424233998637646],['target'],617962,001,2024-10-04_11h17.26.504,visual_search1,2024.2.1post4,59.90628259529839,2024-10-04 11h17.31.478449 +0530,
77,0,77,[-0.196],[-0.162],[1],[0],[0],[2.034650299930945],['target'],77,0,77,0,165.6091569000855,,5,165.59207009989768,165.6091569000855,165.6091569000855,0.011460999958217144,167.62710439995863,[-0.196],[-0.162],[1],[0],[0],[2.034650299930945],['target'],617962,001,2024-10-04_11h17.26.504,visual_search1,2024.2.1post4,59.90628259529839,2024-10-04 11h17.31.478449 +0530,
78,0,78,[-0.194],[0.462],[1],[0],[0],[2.1083478000946343],['target'],78,0,78,0,167.64208699995652,,5,167.63568189996295,167.64208699995652,167.64208699995652,0.008484199875965714,169.7444191998802,[-0.194],[0.462],[1],[0],[0],[2.1083478000946343],['target'],617962,001,2024-10-04_11h17.26.504,visual_search1,2024.2.1post4,59.90628259529839,2024-10-04 11h17.31.478449 +0530,
79,0,79,[-0.372],[0.182],[1],[0],[0],[2.2234033001586795],['target'],79,0,79,0,169.77477520005777,,5,169.75312080001459,169.77477520005777,169.77477520005777,0.008586099836975336,171.97686429996975,[-0.372],[0.182],[1],[0],[0],[2.2234033001586795],['target'],617962,001,2024-10-04_11h17.26.504,visual_search1,2024.2.1post4,59.90628259529839,2024-10-04 11h17.31.478449 +0530,
80,0,80,[0.244],[-0.246],[1],[0],[0],[2.0316937000025064],['target'],80,0,80,0,172.00795940007083,,10,171.9949189000763,172.00795940007083,172.00795940007083,0.017971199937164783,174.02728469995782,[0.244],[-0.246],[1],[0],[0],[2.0316937000025064],['target'],617962,001,2024-10-04_11h17.26.504,visual_search1,2024.2.1post4,59.90628259529839,2024-10-04 11h17.31.478449 +0530,
81,0,81,[0.432],[-0.382],[1],[0],[0],[1.8735068999230862],['target'],81,0,81,0,174.0574449999258,,5,174.0369913999457,174.0574449999258,174.0574449999258,0.009537599980831146,175.91109779989347,[0.432],[-0.382],[1],[0],[0],[1.8735068999230862],['target'],617962,001,2024-10-04_11h17.26.504,visual_search1,2024.2.1post4,59.90628259529839,2024-10-04 11h17.31.478449 +0530,
82,0,82,[-0.514],[-0.334],[1],[0],[0],[1.8662801999598742],['target'],82,0,82,0,175.94333310006186,,5,175.926099000033,175.94333310006186,175.94333310006186,0.014829100109636784,177.7927778000012,[-0.514],[-0.334],[1],[0],[0],[1.8662801999598742],['target'],617962,001,2024-10-04_11h17.26.504,visual_search1,2024.2.1post4,59.90628259529839,2024-10-04 11h17.31.478449 +0530,
83,0,83,[0.35],[0.058],[1],[0],[0],[1.454085199860856],['target'],83,0,83,0,177.82369589991868,,5,177.8070449999068,177.82369589991868,177.82369589991868,0.014181099832057953,179.26186729990877,[0.35],[0.058],[1],[0],[0],[1.454085199860856],['target'],617962,001,2024-10-04_11h17.26.504,visual_search1,2024.2.1post4,59.90628259529839,2024-10-04 11h17.31.478449 +0530,
84,0,84,[-0.178],[0.356],[1],[0],[0],[1.3365305000916123],['target'],84,0,84,0,179.29003020003438,,5,179.27380890003406,179.29003020003438,179.29003020003438,0.011747600045055151,180.61097040004097,[-0.178],[0.356],[1],[0],[0],[1.3365305000916123],['target'],617962,001,2024-10-04_11h17.26.504,visual_search1,2024.2.1post4,59.90628259529839,2024-10-04 11h17.31.478449 +0530,
85,0,85,[0.266],[0.014],[1],[0],[0],[1.887109800009057],['target'],85,0,85,0,180.64054589997977,,5,180.62116939993575,180.64054589997977,180.64054589997977,0.010023800190538168,182.5086072999984,[0.266],[0.014],[1],[0],[0],[1.887109800009057],['target'],617962,001,2024-10-04_11h17.26.504,visual_search1,2024.2.1post4,59.90628259529839,2024-10-04 11h17.31.478449 +0530,
86,0,86,[0.122],[0.402],[1],[0],[0],[2.864882400026545],['target'],86,0,86,0,182.540071999887,,10,182.5264792998787,182.540071999887,182.540071999887,0.017788899829611182,185.39171330002137,[0.122],[0.402],[1],[0],[0],[2.864882400026545],['target'],617962,001,2024-10-04_11h17.26.504,visual_search1,2024.2.1post4,59.90628259529839,2024-10-04 11h17.31.478449 +0530,
87,0,87,[0.322],[-0.114],[1],[0],[0],[1.9558878999669105],['target'],87,0,87,0,185.42324559995905,,5,185.4017783999443,185.42324559995905,185.42324559995905,0.009946000063791871,187.35801009996794,[0.322],[-0.114],[1],[0],[0],[1.9558878999669105],['target'],617962,001,2024-10-04_11h17.26.504,visual_search1,2024.2.1post4,59.90628259529839,2024-10-04 11h17.31.478449 +0530,
88,0,88,[0.358],[-0.118],[1],[0],[0],[2.4500034998636693],['target'],88,0,88,0,187.38908390002325,,10,187.37526379991323,187.38908390002325,187.38908390002325,0.017138299997895956,189.8259992999956,[0.358],[-0.118],[1],[0],[0],[2.4500034998636693],['target'],617962,001,2024-10-04_11h17.26.504,visual_search1,2024.2.1post4,59.90628259529839,2024-10-04 11h17.31.478449 +0530,
89,0,89,[0.186],[0.292],[1],[0],[0],[1.848141900030896],['target'],89,0,89,0,189.85563210002147,,10,189.84339620009996,189.85563210002147,189.85563210002147,0.01723509980365634,191.69200449995697,[0.186],[0.292],[1],[0],[0],[1.848141900030896],['target'],617962,001,2024-10-04_11h17.26.504,visual_search1,2024.2.1post4,59.90628259529839,2024-10-04 11h17.31.478449 +0530,
90,0,90,[0.366],[-0.002],[1],[0],[0],[1.7643917999230325],['target'],90,0,90,0,191.72220190009102,,10,191.71021059993654,191.72220190009102,191.72220190009102,0.018038199981674552,193.47503790003248,[0.366],[-0.002],[1],[0],[0],[1.7643917999230325],['target'],617962,001,2024-10-04_11h17.26.504,visual_search1,2024.2.1post4,59.90628259529839,2024-10-04 11h17.31.478449 +0530,
91,0,91,[0.416],[0.338],[1],[0],[0],[2.2765700998716056],['target'],91,0,91,0,193.52191299991682,,10,193.49619430000894,193.52191299991682,193.52191299991682,0.02103750011883676,195.77325959992595,[0.416],[0.338],[1],[0],[0],[2.2765700998716056],['target'],617962,001,2024-10-04_11h17.26.504,visual_search1,2024.2.1post4,59.90628259529839,2024-10-04 11h17.31.478449 +0530,
92,0,92,[-0.174],[-0.466],[1],[0],[0],[2.712455900153145],['target'],92,0,92,0,195.80492349993438,,10,195.79529789998196,195.80492349993438,195.80492349993438,0.021870599826797843,198.50843739998527,[-0.174],[-0.466],[1],[0],[0],[2.712455900153145],['target'],617962,001,2024-10-04_11h17.26.504,visual_search1,2024.2.1post4,59.90628259529839,2024-10-04 11h17.31.478449 +0530,
93,0,93,[0.29],[-0.414],[1],[0],[0],[3.228938899934292],['target'],93,0,93,0,198.53835309995338,,10,198.52733940002508,198.53835309995338,198.53835309995338,0.018688900163397193,201.7567000000272,[0.29],[-0.414],[1],[0],[0],[3.228938899934292],['target'],617962,001,2024-10-04_11h17.26.504,visual_search1,2024.2.1post4,59.90628259529839,2024-10-04 11h17.31.478449 +0530,
94,0,94,[0.404],[0.042],[1],[0],[0],[1.4287560998927802],['target'],94,0,94,0,201.78718420001678,,5,201.76520500006154,201.78718420001678,201.78718420001678,0.00836540013551712,203.19463939988054,[0.404],[0.042],[1],[0],[0],[1.4287560998927802],['target'],617962,001,2024-10-04_11h17.26.504,visual_search1,2024.2.1post4,59.90628259529839,2024-10-04 11h17.31.478449 +0530,
95,0,95,[0.324],[0.002],[1],[0],[0],[1.35015879990533],['target'],95,0,95,0,203.22115239989944,,5,203.2060322999023,203.22115239989944,203.22115239989944,0.011214099824428558,204.55680939997546,[0.324],[0.002],[1],[0],[0],[1.35015879990533],['target'],617962,001,2024-10-04_11h17.26.504,visual_search1,2024.2.1post4,59.90628259529839,2024-10-04 11h17.31.478449 +0530,
96,0,96,[0.316],[0.31],[1],[0],[0],[1.5055862001609057],['target'],96,0,96,0,204.58745920006186,,5,204.565909500001,204.58745920006186,204.58745920006186,0.008976300014182925,206.0718443999067,[0.316],[0.31],[1],[0],[0],[1.5055862001609057],['target'],617962,001,2024-10-04_11h17.26.504,visual_search1,2024.2.1post4,59.90628259529839,2024-10-04 11h17.31.478449 +0530,
97,0,97,[-0.08],[-0.122],[1],[0],[0],[1.4585931999608874],['target'],97,0,97,0,206.1038860999979,,5,206.08067129994743,206.1038860999979,206.1038860999979,0.008715299889445305,207.5396449000109,[-0.08],[-0.122],[1],[0],[0],[1.4585931999608874],['target'],617962,001,2024-10-04_11h17.26.504,visual_search1,2024.2.1post4,59.90628259529839,2024-10-04 11h17.31.478449 +0530,
98,0,98,[0.406],[-0.094],[1],[0],[0],[1.3865958999376744],['target'],98,0,98,0,207.5701067999471,,5,207.55211200006306,207.5701067999471,207.5701067999471,0.012352699879556894,208.93912109988742,[0.406],[-0.094],[1],[0],[0],[1.3865958999376744],['target'],617962,001,2024-10-04_11h17.26.504,visual_search1,2024.2.1post4,59.90628259529839,2024-10-04 11h17.31.478449 +0530,
99,0,99,[-0.164],[0.016],[1],[0],[0],[1.879873599857092],['target'],99,0,99,0,208.96961620007642,,10,208.95835889992304,208.96961620007642,208.96961620007642,0.01912609999999404,210.83858030010015,[-0.164],[0.016],[1],[0],[0],[1.879873599857092],['target'],617962,001,2024-10-04_11h17.26.504,visual_search1,2024.2.1post4,59.90628259529839,2024-10-04 11h17.31.478449 +0530,
100,0,100,[-0.144],[-0.356],[1],[0],[0],[1.6909620999358594],['target'],100,0,100,0,210.85327120008878,,5,210.84695939999074,210.85327120008878,210.85327120008878,0.008274799911305308,212.53840099996887,[-0.144],[-0.356],[1],[0],[0],[1.6909620999358594],['target'],617962,001,2024-10-04_11h17.26.504,visual_search1,2024.2.1post4,59.90628259529839,2024-10-04 11h17.31.478449 +0530,
101,0,101,[-0.492],[0.072],[1],[0],[0],[4.367912600049749],['target'],101,0,101,0,212.5696199000813,,10,212.5544306000229,212.5696199000813,212.5696199000813,0.015948700020089746,216.92300909990445,[-0.492],[0.072],[1],[0],[0],[4.367912600049749],['target'],617962,001,2024-10-04_11h17.26.504,visual_search1,2024.2.1post4,59.90628259529839,2024-10-04 11h17.31.478449 +0530,
102,0,102,[0.324],[-0.142],[1],[0],[0],[2.338355800136924],['target'],102,0,102,0,216.9525041000452,,5,216.9350340999663,216.9525041000452,216.9525041000452,0.011835100129246712,219.2742290000897,[0.324],[-0.142],[1],[0],[0],[2.338355800136924],['target'],617962,001,2024-10-04_11h17.26.504,visual_search1,2024.2.1post4,59.90628259529839,2024-10-04 11h17.31.478449 +0530,
103,0,103,[0.112],[-0.322],[1],[0],[0],[1.5255758001003414],['target'],103,0,103,0,219.31887610000558,,10,219.2943686998915,219.31887610000558,219.31887610000558,0.01989490003325045,220.8202821998857,[0.112],[-0.322],[1],[0],[0],[1.5255758001003414],['target'],617962,001,2024-10-04_11h17.26.504,visual_search1,2024.2.1post4,59.90628259529839,2024-10-04 11h17.31.478449 +0530,
104,0,104,[0.034],[0.164],[1],[0],[0],[2.292303000111133],['target'],104,0,104,0,220.85115129989572,,5,220.8287166999653,220.85115129989572,220.85115129989572,0.008328699972480536,223.1217340999283,[0.034],[0.164],[1],[0],[0],[2.292303000111133],['target'],617962,001,2024-10-04_11h17.26.504,visual_search1,2024.2.1post4,59.90628259529839,2024-10-04 11h17.31.478449 +0530,
105,0,105,[0.434],[-0.142],[1],[0],[0],[1.8791104999836534],['target'],105,0,105,0,223.15133720007725,,10,223.14060520008206,223.15133720007725,223.15133720007725,0.018670500023290515,225.020134099992,[0.434],[-0.142],[1],[0],[0],[1.8791104999836534],['target'],617962,001,2024-10-04_11h17.26.504,visual_search1,2024.2.1post4,59.90628259529839,2024-10-04 11h17.31.478449 +0530,
106,0,106,[-0.302],[0.222],[1],[0],[0],[1.590250600129366],['target'],106,0,106,0,225.05090159992687,,5,225.02903490001336,225.05090159992687,225.05090159992687,0.008715900126844645,226.61961960000917,[-0.302],[0.222],[1],[0],[0],[1.590250600129366],['target'],617962,001,2024-10-04_11h17.26.504,visual_search1,2024.2.1post4,59.90628259529839,2024-10-04 11h17.31.478449 +0530,
107,0,107,[0.07],[-0.444],[1],[0],[0],[2.4812566000036895],['target'],107,0,107,0,226.6509865000844,,10,226.63757169991732,226.6509865000844,226.6509865000844,0.01786690019071102,229.11914690001868,[0.07],[-0.444],[1],[0],[0],[2.4812566000036895],['target'],617962,001,2024-10-04_11h17.26.504,visual_search1,2024.2.1post4,59.90628259529839,2024-10-04 11h17.31.478449 +0530,
108,0,108,[0.046],[-0.088],[1],[0],[0],[1.7476268999744207],['target'],108,0,108,0,229.16724209999666,,10,229.13923040009104,229.16724209999666,229.16724209999666,0.019983100006356835,230.88746170001104,[0.046],[-0.088],[1],[0],[0],[1.7476268999744207],['target'],617962,001,2024-10-04_11h17.26.504,visual_search1,2024.2.1post4,59.90628259529839,2024-10-04 11h17.31.478449 +0530,
109,0,109,[0.412],[0.108],[1],[0],[0],[1.7177291999105364],['target'],109,0,109,0,230.91706830007024,,5,230.9026162000373,230.91706830007024,230.91706830007024,0.014956300146877766,232.6209676999133,[0.412],[0.108],[1],[0],[0],[1.7177291999105364],['target'],617962,001,2024-10-04_11h17.26.504,visual_search1,2024.2.1post4,59.90628259529839,2024-10-04 11h17.31.478449 +0530,
110,0,110,[0.434],[0.124],[1],[0],[0],[1.9029403999447823],['target'],110,0,110,0,232.65061119990423,,5,232.63159410003573,232.65061119990423,232.65061119990423,0.010438600089401007,234.534906799905,[0.434],[0.124],[1],[0],[0],[1.9029403999447823],['target'],617962,001,2024-10-04_11h17.26.504,visual_search1,2024.2.1post4,59.90628259529839,2024-10-04 11h17.31.478449 +0530,
111,0,111,[-0.172],[-0.148],[1],[0],[0],[1.5414617001079023],['target'],111,0,111,0,234.56631930009462,,5,234.54410930001177,234.56631930009462,234.56631930009462,0.009112800005823374,236.08613339997828,[-0.172],[-0.148],[1],[0],[0],[1.5414617001079023],['target'],617962,001,2024-10-04_11h17.26.504,visual_search1,2024.2.1post4,59.90628259529839,2024-10-04 11h17.31.478449 +0530,
112,0,112,[0.426],[0.02],[1],[0],[0],[1.7722287001088262],['target'],112,0,112,0,236.1161454000976,,5,236.0972515998874,236.1161454000976,236.1161454000976,0.010912099853157997,237.87017789995298,[0.426],[0.02],[1],[0],[0],[1.7722287001088262],['target'],617962,001,2024-10-04_11h17.26.504,visual_search1,2024.2.1post4,59.90628259529839,2024-10-04 11h17.31.478449 +0530,
113,0,113,[-0.19],[-0.104],[1],[0],[0],[1.5936827000696212],['target'],113,0,113,0,237.9165058999788,,10,237.89133809995838,237.9165058999788,237.9165058999788,0.020999599946662784,239.48583459993824,[-0.19],[-0.104],[1],[0],[0],[1.5936827000696212],['target'],617962,001,2024-10-04_11h17.26.504,visual_search1,2024.2.1post4,59.90628259529839,2024-10-04 11h17.31.478449 +0530,
114,0,114,[0.076],[-0.444],[1],[0],[0],[2.470250600017607],['target'],114,0,114,0,239.5161073000636,,5,239.49714069999754,239.5161073000636,239.5161073000636,0.011076400056481361,241.96778930001892,[0.076],[-0.444],[1],[0],[0],[2.470250600017607],['target'],617962,001,2024-10-04_11h17.26.504,visual_search1,2024.2.1post4,59.90628259529839,2024-10-04 11h17.31.478449 +0530,
115,0,115,[-0.072],[0.214],[1],[0],[0],[2.508208299987018],['target'],115,0,115,0,241.99855930008925,,5,241.97788550006226,241.99855930008925,241.99855930008925,0.010018900036811829,244.4868850999046,[-0.072],[0.214],[1],[0],[0],[2.508208299987018],['target'],617962,001,2024-10-04_11h17.26.504,visual_search1,2024.2.1post4,59.90628259529839,2024-10-04 11h17.31.478449 +0530,
116,0,116,[0.274],[0.46],[1],[0],[0],[1.7997308999765664],['target'],116,0,116,0,244.5154047999531,,5,244.5004211999476,244.5154047999531,244.5154047999531,0.013362100115045905,246.30067629995756,[0.274],[0.46],[1],[0],[0],[1.7997308999765664],['target'],617962,001,2024-10-04_11h17.26.504,visual_search1,2024.2.1post4,59.90628259529839,2024-10-04 11h17.31.478449 +0530,
117,0,117,[0.36],[0.396],[1],[0],[0],[1.493205700069666],['target'],117,0,117,0,246.34835419990122,,10,246.32331250002608,246.34835419990122,246.34835419990122,0.02247119997628033,247.81685939989984,[0.36],[0.396],[1],[0],[0],[1.493205700069666],['target'],617962,001,2024-10-04_11h17.26.504,visual_search1,2024.2.1post4,59.90628259529839,2024-10-04 11h17.31.478449 +0530,
118,0,118,[0.28],[0.09],[1],[0],[0],[1.6102332998998463],['target'],118,0,118,0,247.84800780005753,,5,247.82555050007068,247.84800780005753,247.84800780005753,0.008585800183936954,249.43646149989218,[0.28],[0.09],[1],[0],[0],[1.6102332998998463],['target'],617962,001,2024-10-04_11h17.26.504,visual_search1,2024.2.1post4,59.90628259529839,2024-10-04 11h17.31.478449 +0530,
119,0,119,[-0.064],[0.028],[1],[0],[0],[3.081954099936411],['target'],119,0,119,0,249.46464779996313,,5,249.45058450009674,249.46464779996313,249.46464779996313,0.013885400025174022,252.53331759991124,[-0.064],[0.028],[1],[0],[0],[3.081954099936411],['target'],617962,001,2024-10-04_11h17.26.504,visual_search1,2024.2.1post4,59.90628259529839,2024-10-04 11h17.31.478449 +0530,
120,0,120,[0.094],[0.144],[1],[0],[0],[1.839323699939996],['target'],120,0,120,0,252.56466650008224,,5,252.54334870004095,252.56466650008224,252.56466650008224,0.009877600008621812,254.38315859995782,[0.094],[0.144],[1],[0],[0],[1.839323699939996],['target'],617962,001,2024-10-04_11h17.26.504,visual_search1,2024.2.1post4,59.90628259529839,2024-10-04 11h17.31.478449 +0530,
121,0,121,[-0.082],[-0.386],[1],[0],[0],[1.7389718000777066],['target'],121,0,121,0,254.41453989990987,,5,254.39328560000286,254.41453989990987,254.41453989990987,0.009956300025805831,256.1325987998862,[-0.082],[-0.386],[1],[0],[0],[1.7389718000777066],['target'],617962,001,2024-10-04_11h17.26.504,visual_search1,2024.2.1post4,59.90628259529839,2024-10-04 11h17.31.478449 +0530,
122,0,122,[-0.016],[-0.036],[1],[0],[0],[2.9996450000908226],['target'],122,0,122,0,256.16342490003444,,10,256.1510683000088,256.16342490003444,256.16342490003444,0.018383600050583482,259.15146679989994,[-0.016],[-0.036],[1],[0],[0],[2.9996450000908226],['target'],617962,001,2024-10-04_11h17.26.504,visual_search1,2024.2.1post4,59.90628259529839,2024-10-04 11h17.31.478449 +0530,
123,0,123,[0.208],[-0.028],[1],[0],[0],[1.952571599977091],['target'],123,0,123,0,259.1801877999678,,5,259.1632185000926,259.1801877999678,259.1801877999678,0.011549399932846427,261.11612999998033,[0.208],[-0.028],[1],[0],[0],[1.952571599977091],['target'],617962,001,2024-10-04_11h17.26.504,visual_search1,2024.2.1post4,59.90628259529839,2024-10-04 11h17.31.478449 +0530,
124,0,124,[-0.08],[0.152],[1],[0],[0],[1.6916261999867857],['target'],124,0,124,0,261.1470202000346,,5,261.12559109996073,261.1470202000346,261.1470202000346,0.009367599850520492,262.81797349988483,[-0.08],[0.152],[1],[0],[0],[1.6916261999867857],['target'],617962,001,2024-10-04_11h17.26.504,visual_search1,2024.2.1post4,59.90628259529839,2024-10-04 11h17.31.478449 +0530,
125,0,125,[0.292],[-0.1],[1],[0],[0],[1.7032391000539064],['target'],125,0,125,0,262.84673790005036,,5,262.8283583999146,262.84673790005036,262.84673790005036,0.010240399977192283,264.53209750005044,[0.292],[-0.1],[1],[0],[0],[1.7032391000539064],['target'],617962,001,2024-10-04_11h17.26.504,visual_search1,2024.2.1post4,59.90628259529839,2024-10-04 11h17.31.478449 +0530,
126,0,126,[-0.186],[0.32],[1],[0],[0],[1.5713623999617994],['target'],126,0,126,0,264.629175900016,,10,264.6104663000442,264.629175900016,264.629175900016,0.07825510017573833,266.18219089997,[-0.186],[0.32],[1],[0],[0],[1.5713623999617994],['target'],617962,001,2024-10-04_11h17.26.504,visual_search1,2024.2.1post4,59.90628259529839,2024-10-04 11h17.31.478449 +0530,
127,0,127,[0.004],[-0.276],[1],[0],[0],[2.47568599996157],['target'],127,0,127,0,266.21214459999464,,5,266.19124699989334,266.21214459999464,266.21214459999464,0.008966999826952815,268.66786869987845,[0.004],[-0.276],[1],[0],[0],[2.47568599996157],['target'],617962,001,2024-10-04_11h17.26.504,visual_search1,2024.2.1post4,59.90628259529839,2024-10-04 11h17.31.478449 +0530,
128,0,128,[0.404],[-0.184],[1],[0],[0],[1.9680111999623477],['target'],128,0,128,0,268.6955464000348,,5,268.6806383000221,268.6955464000348,268.6955464000348,0.012617599917575717,270.6493144000415,[0.404],[-0.184],[1],[0],[0],[1.9680111999623477],['target'],617962,001,2024-10-04_11h17.26.504,visual_search1,2024.2.1post4,59.90628259529839,2024-10-04 11h17.31.478449 +0530,
129,0,129,[0.416],[-0.464],[1],[0],[0],[2.172086799982935],['target'],129,0,129,0,270.6952378998976,,10,270.6755361999385,270.6952378998976,270.6952378998976,0.026041900040581822,272.84830549987964,[0.416],[-0.464],[1],[0],[0],[2.172086799982935],['target'],617962,001,2024-10-04_11h17.26.504,visual_search1,2024.2.1post4,59.90628259529839,2024-10-04 11h17.31.478449 +0530,
130,0,130,[-0.116],[-0.17],[1],[0],[0],[1.9959992000367492],['target'],130,0,130,0,272.89542829990387,,10,272.8678005998954,272.89542829990387,272.89542829990387,0.019289599964395165,274.86421200004406,[-0.116],[-0.17],[1],[0],[0],[1.9959992000367492],['target'],617962,001,2024-10-04_11h17.26.504,visual_search1,2024.2.1post4,59.90628259529839,2024-10-04 11h17.31.478449 +0530,
131,0,131,[0.358],[-0.244],[1],[0],[0],[1.4075339999981225],['target'],131,0,131,0,274.8950861999765,,5,274.87347160000354,274.8950861999765,274.8950861999765,0.009132000152021646,276.281823300058,[0.358],[-0.244],[1],[0],[0],[1.4075339999981225],['target'],617962,001,2024-10-04_11h17.26.504,visual_search1,2024.2.1post4,59.90628259529839,2024-10-04 11h17.31.478449 +0530,
132,0,132,[-0.162],[0.034],[1],[0],[0],[1.1375152000691742],['target'],132,0,132,0,276.3113496999722,,5,276.2939784999471,276.3113496999722,276.3113496999722,0.011942799901589751,277.4322238001041,[-0.162],[0.034],[1],[0],[0],[1.1375152000691742],['target'],617962,001,2024-10-04_11h17.26.504,visual_search1,2024.2.1post4,59.90628259529839,2024-10-04 11h17.31.478449 +0530,
133,0,133,[-0.328],[0.39],[1],[0],[0],[1.786553499987349],['target'],133,0,133,0,277.46135580004193,,5,277.44325940008275,277.46135580004193,277.46135580004193,0.010833000065758824,279.230501400074,[-0.328],[0.39],[1],[0],[0],[1.786553499987349],['target'],617962,001,2024-10-04_11h17.26.504,visual_search1,2024.2.1post4,59.90628259529839,2024-10-04 11h17.31.478449 +0530,
134,0,134,[0.09],[0.338],[1],[0],[0],[1.531100400025025],['target'],134,0,134,0,279.2608215000946,,5,279.24873550003394,279.2608215000946,279.2608215000946,0.017969300039112568,280.78045640001073,[0.09],[0.338],[1],[0],[0],[1.531100400025025],['target'],617962,001,2024-10-04_11h17.26.504,visual_search1,2024.2.1post4,59.90628259529839,2024-10-04 11h17.31.478449 +0530,
135,0,135,[0.244],[-0.07],[1],[0],[0],[1.4491046001203358],['target'],135,0,135,0,280.81078729988076,,10,280.79889600002207,280.81078729988076,280.81078729988076,0.01831590011715889,282.2488593000453,[0.244],[-0.07],[1],[0],[0],[1.4491046001203358],['target'],617962,001,2024-10-04_11h17.26.504,visual_search1,2024.2.1post4,59.90628259529839,2024-10-04 11h17.31.478449 +0530,
136,0,136,[-0.044],[-0.076],[1],[0],[0],[1.7689356999471784],['target'],136,0,136,0,282.27700000000186,,5,282.26118750008754,282.27700000000186,282.27700000000186,0.012067900039255619,284.03062020009384,[-0.044],[-0.076],[1],[0],[0],[1.7689356999471784],['target'],617962,001,2024-10-04_11h17.26.504,visual_search1,2024.2.1post4,59.90628259529839,2024-10-04 11h17.31.478449 +0530,
137,0,137,[-0.216],[0.186],[1],[0],[0],[2.132155600003898],['target'],137,0,137,0,284.0606221999042,,10,284.0483717999887,284.0606221999042,284.0606221999042,0.01760170003399253,286.18116190005094,[-0.216],[0.186],[1],[0],[0],[2.132155600003898],['target'],617962,001,2024-10-04_11h17.26.504,visual_search1,2024.2.1post4,59.90628259529839,2024-10-04 11h17.31.478449 +0530,
138,0,138,[0.242],[-0.32],[1],[0],[0],[1.5620759001467377],['target'],138,0,138,0,286.2268749999348,,10,286.19916089996696,286.2268749999348,286.2268749999348,0.017799600027501583,287.7615559999831,[0.242],[-0.32],[1],[0],[0],[1.5620759001467377],['target'],617962,001,2024-10-04_11h17.26.504,visual_search1,2024.2.1post4,59.90628259529839,2024-10-04 11h17.31.478449 +0530,
139,0,139,[0.326],[0.238],[1],[0],[0],[1.7757755999919027],['target'],139,0,139,0,287.79277150006965,,5,287.77001259988174,287.79277150006965,287.79277150006965,0.008339100051671267,289.5463525999803,[0.326],[0.238],[1],[0],[0],[1.7757755999919027],['target'],617962,001,2024-10-04_11h17.26.504,visual_search1,2024.2.1post4,59.90628259529839,2024-10-04 11h17.31.478449 +0530,
140,0,140,[0.238],[-0.248],[1],[0],[0],[2.3637538999319077],['target'],140,0,140,0,289.5763552999124,,10,289.56495340005495,289.5763552999124,289.5763552999124,0.018422900000587106,291.9294014000334,[0.238],[-0.248],[1],[0],[0],[2.3637538999319077],['target'],617962,001,2024-10-04_11h17.26.504,visual_search1,2024.2.1post4,59.90628259529839,2024-10-04 11h17.31.478449 +0530,
141,0,141,[-0.398],[-0.182],[1],[0],[0],[1.7145989001728594],['target'],141,0,141,0,291.9596315000672,,10,291.9473001998849,291.9596315000672,291.9596315000672,0.017703999998047948,293.6624336000532,[-0.398],[-0.182],[1],[0],[0],[1.7145989001728594],['target'],617962,001,2024-10-04_11h17.26.504,visual_search1,2024.2.1post4,59.90628259529839,2024-10-04 11h17.31.478449 +0530,
142,0,142,[-0.484],[0.008],[1],[0],[0],[1.9805649002082646],['target'],142,0,142,0,293.7088806000538,,10,293.6821781999897,293.7088806000538,293.7088806000538,0.019607400055974722,295.66348119988106,[-0.484],[0.008],[1],[0],[0],[1.9805649002082646],['target'],617962,001,2024-10-04_11h17.26.504,visual_search1,2024.2.1post4,59.90628259529839,2024-10-04 11h17.31.478449 +0530,
143,0,143,[-0.028],[-0.04],[1],[0],[0],[4.726804699981585],['target'],143,0,143,0,295.7085470999591,,10,295.6839328999631,295.7085470999591,295.7085470999591,0.020270799985155463,300.4110648999922,[-0.028],[-0.04],[1],[0],[0],[4.726804699981585],['target'],617962,001,2024-10-04_11h17.26.504,visual_search1,2024.2.1post4,59.90628259529839,2024-10-04 11h17.31.478449 +0530,
144,0,144,[0.378],[-0.154],[1],[0],[0],[2.324758700095117],['target'],144,0,144,0,300.4412299999967,,5,300.4196631000377,300.4412299999967,300.4412299999967,0.008457300020381808,302.7451420999132,[0.378],[-0.154],[1],[0],[0],[2.324758700095117],['target'],617962,001,2024-10-04_11h17.26.504,visual_search1,2024.2.1post4,59.90628259529839,2024-10-04 11h17.31.478449 +0530,
145,0,145,[-0.356],[-0.326],[1],[0],[0],[2.373621900100261],['target'],145,0,145,0,302.7745898999274,,5,302.75463719991967,302.7745898999274,302.7745898999274,0.009350799955427647,305.12899690004997,[-0.356],[-0.326],[1],[0],[0],[2.373621900100261],['target'],617962,001,2024-10-04_11h17.26.504,visual_search1,2024.2.1post4,59.90628259529839,2024-10-04 11h17.31.478449 +0530,
146,0,146,[0.26],[-0.362],[1],[0],[0],[1.2713454000186175],['target'],146,0,146,0,305.15797939989716,,5,305.14035680005327,305.15797939989716,305.15797939989716,0.011182599933817983,306.41261269990355,[0.26],[-0.362],[1],[0],[0],[1.2713454000186175],['target'],617962,001,2024-10-04_11h17.26.504,visual_search1,2024.2.1post4,59.90628259529839,2024-10-04 11h17.31.478449 +0530,
147,0,147,[-0.028],[0.084],[1],[0],[0],[1.4620658000931144],['target'],147,0,147,0,306.45725130010396,,10,306.43235979997553,306.45725130010396,306.45725130010396,0.019453200045973063,307.89508350007236,[-0.028],[0.084],[1],[0],[0],[1.4620658000931144],['target'],617962,001,2024-10-04_11h17.26.504,visual_search1,2024.2.1post4,59.90628259529839,2024-10-04 11h17.31.478449 +0530,
148,0,148,[-0.318],[-0.142],[1],[0],[0],[1.4777138999197632],['target'],148,0,148,0,307.92379770008847,,10,307.91449879994616,307.92379770008847,307.92379770008847,0.01922359992749989,309.3926107001025,[-0.318],[-0.142],[1],[0],[0],[1.4777138999197632],['target'],617962,001,2024-10-04_11h17.26.504,visual_search1,2024.2.1post4,59.90628259529839,2024-10-04 11h17.31.478449 +0530,
149,0,149,[0.438],[0.106],[1],[0],[0],[2.290478999959305],['target'],149,0,149,0,309.423582599964,,5,309.40106959990226,309.423582599964,309.423582599964,0.008335900027304888,311.6918997000903,[0.438],[0.106],[1],[0],[0],[2.290478999959305],['target'],617962,001,2024-10-04_11h17.26.504,visual_search1,2024.2.1post4,59.90628259529839,2024-10-04 11h17.31.478449 +0530,
150,0,150,[-0.028],[0.288],[1],[0],[0],[1.4615745998453349],['target'],150,0,150,0,311.7233211998828,,5,311.7003536000848,311.7233211998828,311.7233211998828,0.008390499977394938,313.1627096000593,[-0.028],[0.288],[1],[0],[0],[1.4615745998453349],['target'],617962,001,2024-10-04_11h17.26.504,visual_search1,2024.2.1post4,59.90628259529839,2024-10-04 11h17.31.478449 +0530,
151,0,151,[0.21],[-0.202],[1],[0],[0],[1.383329400094226],['target'],151,0,151,0,313.1900973999873,,5,313.17549029993825,313.1900973999873,313.1900973999873,0.012617900036275387,314.55921410000883,[0.21],[-0.202],[1],[0],[0],[1.383329400094226],['target'],617962,001,2024-10-04_11h17.26.504,visual_search1,2024.2.1post4,59.90628259529839,2024-10-04 11h17.31.478449 +0530,
152,0,152,[-0.156],[0.456],[1],[0],[0],[3.1984470998868346],['target'],152,0,152,0,314.59008009987883,,10,314.57665559998713,314.59008009987883,314.59008009987883,0.017343899933621287,317.77544689993374,[-0.156],[0.456],[1],[0],[0],[3.1984470998868346],['target'],617962,001,2024-10-04_11h17.26.504,visual_search1,2024.2.1post4,59.90628259529839,2024-10-04 11h17.31.478449 +0530,
153,0,153,[0.012],[-0.376],[1],[0],[0],[2.641554000088945],['target'],153,0,153,0,317.80581049993634,,5,317.7845860000234,317.80581049993634,317.80581049993634,0.009022600017488003,320.4268527000677,[0.012],[-0.376],[1],[0],[0],[2.641554000088945],['target'],617962,001,2024-10-04_11h17.26.504,visual_search1,2024.2.1post4,59.90628259529839,2024-10-04 11h17.31.478449 +0530,
154,0,154,[-0.302],[-0.418],[1],[0],[0],[3.4602840999141335],['target'],154,0,154,0,320.4720811001025,,10,320.44608810008503,320.4720811001025,320.4720811001025,0.019002400105819106,323.9067156999372,[-0.302],[-0.418],[1],[0],[0],[3.4602840999141335],['target'],617962,001,2024-10-04_11h17.26.504,visual_search1,2024.2.1post4,59.90628259529839,2024-10-04 11h17.31.478449 +0530,
155,0,155,[-0.484],[0.21],[1],[0],[0],[1.5728780999779701],['target'],155,0,155,0,323.9385142000392,,5,323.91823050007224,323.9385142000392,323.9385142000392,0.01141409995034337,325.49147349991836,[-0.484],[0.21],[1],[0],[0],[1.5728780999779701],['target'],617962,001,2024-10-04_11h17.26.504,visual_search1,2024.2.1post4,59.90628259529839,2024-10-04 11h17.31.478449 +0530,
156,0,156,[0.068],[-0.11],[1],[0],[0],[1.6738632000051439],['target'],156,0,156,0,325.521657000063,,5,325.50019160006195,325.521657000063,325.521657000063,0.008622900117188692,327.1746274998877,[0.068],[-0.11],[1],[0],[0],[1.6738632000051439],['target'],617962,001,2024-10-04_11h17.26.504,visual_search1,2024.2.1post4,59.90628259529839,2024-10-04 11h17.31.478449 +0530,
157,0,157,[0.432],[0.458],[1],[0],[0],[2.330589799908921],['target'],157,0,157,0,327.2050256000366,,10,327.1935117999092,327.2050256000366,327.2050256000366,0.01878939988091588,329.52445910009556,[0.432],[0.458],[1],[0],[0],[2.330589799908921],['target'],617962,001,2024-10-04_11h17.26.504,visual_search1,2024.2.1post4,59.90628259529839,2024-10-04 11h17.31.478449 +0530,
158,0,158,[0.134],[-0.118],[1],[0],[0],[1.475436600157991],['target'],158,0,158,0,329.5543708000332,,5,329.53280639997683,329.5543708000332,329.5543708000332,0.008235499961301684,331.0090111999307,[0.134],[-0.118],[1],[0],[0],[1.475436600157991],['target'],617962,001,2024-10-04_11h17.26.504,visual_search1,2024.2.1post4,59.90628259529839,2024-10-04 11h17.31.478449 +0530,
159,0,159,[0.1],[-0.458],[1],[0],[0],[1.5342250999528915],['target'],159,0,159,0,331.03787319990806,,5,331.0216443000827,331.03787319990806,331.03787319990806,0.012470399960875511,332.55626070010476,[0.1],[-0.458],[1],[0],[0],[1.5342250999528915],['target'],617962,001,2024-10-04_11h17.26.504,visual_search1,2024.2.1post4,59.90628259529839,2024-10-04 11h17.31.478449 +0530,
160,0,160,[0.012],[-0.426],[1],[0],[0],[3.0785767000634223],['target'],160,0,160,0,332.58711230009794,,10,332.5775709000882,332.58711230009794,332.58711230009794,0.02117799990810454,335.6570204999298,[0.012],[-0.426],[1],[0],[0],[3.0785767000634223],['target'],617962,001,2024-10-04_11h17.26.504,visual_search1,2024.2.1post4,59.90628259529839,2024-10-04 11h17.31.478449 +0530,
161,0,161,[-0.02],[-0.44],[1],[0],[0],[1.9626058000139892],['target'],161,0,161,0,335.68696579989046,,10,335.6775954000186,335.68696579989046,335.68696579989046,0.020319300005212426,337.64097500010394,[-0.02],[-0.44],[1],[0],[0],[1.9626058000139892],['target'],617962,001,2024-10-04_11h17.26.504,visual_search1,2024.2.1post4,59.90628259529839,2024-10-04 11h17.31.478449 +0530,
162,0,162,[0.472],[0.462],[1],[0],[0],[2.0095585000235587],['target'],162,0,162,0,337.6866279998794,,10,337.6640161999967,337.6866279998794,337.6866279998794,0.022650099825114012,339.6743654999882,[0.472],[0.462],[1],[0],[0],[2.0095585000235587],['target'],617962,001,2024-10-04_11h17.26.504,visual_search1,2024.2.1post4,59.90628259529839,2024-10-04 11h17.31.478449 +0530,
163,0,163,[0.084],[0.46],[1],[0],[0],[1.6358151000458747],['target'],163,0,163,0,339.70321980002336,,5,339.687153799925,339.70321980002336,339.70321980002336,0.012615200132131577,341.3237924000714,[0.084],[0.46],[1],[0],[0],[1.6358151000458747],['target'],617962,001,2024-10-04_11h17.26.504,visual_search1,2024.2.1post4,59.90628259529839,2024-10-04 11h17.31.478449 +0530,
164,0,164,[-0.092],[0.496],[1],[0],[0],[2.0790644001681358],['target'],164,0,164,0,341.3529765000567,,10,341.3423633999191,341.3529765000567,341.3529765000567,0.018388699973002076,343.42177290003747,[-0.092],[0.496],[1],[0],[0],[2.0790644001681358],['target'],617962,001,2024-10-04_11h17.26.504,visual_search1,2024.2.1post4,59.90628259529839,2024-10-04 11h17.31.478449 +0530,
165,0,165,[-0.36],[0.104],[1],[0],[0],[1.7816371000371873],['target'],165,0,165,0,343.4523310000077,,10,343.4393352998886,343.4523310000077,343.4523310000077,0.017451199935749173,345.2212978999596,[-0.36],[0.104],[1],[0],[0],[1.7816371000371873],['target'],617962,001,2024-10-04_11h17.26.504,visual_search1,2024.2.1post4,59.90628259529839,2024-10-04 11h17.31.478449 +0530,
166,0,166,[-0.06],[-0.074],[1],[0],[0],[2.156947899842635],['target'],166,0,166,0,345.25226909993216,,5,345.23013020004146,345.25226909993216,345.25226909993216,0.008711999980732799,347.38759179995395,[-0.06],[-0.074],[1],[0],[0],[2.156947899842635],['target'],617962,001,2024-10-04_11h17.26.504,visual_search1,2024.2.1post4,59.90628259529839,2024-10-04 11h17.31.478449 +0530,
167,0,167,[0.082],[0.482],[1],[0],[0],[1.683119700057432],['target'],167,0,167,0,347.41866540000774,,10,347.40504499990493,347.41866540000774,347.41866540000774,0.01736579998396337,349.08895589993335,[0.082],[0.482],[1],[0],[0],[1.683119700057432],['target'],617962,001,2024-10-04_11h17.26.504,visual_search1,2024.2.1post4,59.90628259529839,2024-10-04 11h17.31.478449 +0530,
168,0,168,[-0.172],[-0.01],[1],[0],[0],[1.571363699855283],['target'],168,0,168,0,349.11907220003195,,5,349.0990599999204,349.11907220003195,349.11907220003195,0.009856000076979399,350.6708410999272,[-0.172],[-0.01],[1],[0],[0],[1.571363699855283],['target'],617962,001,2024-10-04_11h17.26.504,visual_search1,2024.2.1post4,59.90628259529839,2024-10-04 11h17.31.478449 +0530,
169,0,169,[-0.076],[0.126],[1],[0],[0],[1.4647603000048548],['target'],169,0,169,0,350.70144030009396,,10,350.6889074000064,350.70144030009396,350.70144030009396,0.017925000051036477,352.1540369000286,[-0.076],[0.126],[1],[0],[0],[1.4647603000048548],['target'],617962,001,2024-10-04_11h17.26.504,visual_search1,2024.2.1post4,59.90628259529839,2024-10-04 11h17.31.478449 +0530,
170,0,170,[-0.292],[0.342],[1],[0],[0],[1.6408585999161005],['target'],170,0,170,0,352.1847995999269,,5,352.1636767999735,352.1847995999269,352.1847995999269,0.009371199877932668,353.8052646999713,[-0.292],[0.342],[1],[0],[0],[1.6408585999161005],['target'],617962,001,2024-10-04_11h17.26.504,visual_search1,2024.2.1post4,59.90628259529839,2024-10-04 11h17.31.478449 +0530,
171,0,171,[0.11],[0.028],[1],[0],[0],[1.6906522999051958],['target'],171,0,171,0,353.83516009990126,,5,353.8155960000586,353.83516009990126,353.83516009990126,0.010154700139537454,355.50714299990796,[0.11],[0.028],[1],[0],[0],[1.6906522999051958],['target'],617962,001,2024-10-04_11h17.26.504,visual_search1,2024.2.1post4,59.90628259529839,2024-10-04 11h17.31.478449 +0530,
172,0,172,[0.358],[-0.452],[1],[0],[0],[2.4256764999590814],['target'],172,0,172,0,355.5512872999534,,10,355.52693430008367,355.5512872999534,355.5512872999534,0.01958970003761351,357.9531072000973,[0.358],[-0.452],[1],[0],[0],[2.4256764999590814],['target'],617962,001,2024-10-04_11h17.26.504,visual_search1,2024.2.1post4,59.90628259529839,2024-10-04 11h17.31.478449 +0530,
173,0,173,[-0.34],[0.284],[1],[0],[0],[2.326601499924436],['target'],173,0,173,0,357.9839572000783,,5,357.96177099994384,357.9839572000783,357.9839572000783,0.008547900011762977,360.28900439990684,[-0.34],[0.284],[1],[0],[0],[2.326601499924436],['target'],617962,001,2024-10-04_11h17.26.504,visual_search1,2024.2.1post4,59.90628259529839,2024-10-04 11h17.31.478449 +0530,
174,0,174,[0.2],[0.454],[1],[0],[0],[2.2933438001200557],['target'],174,0,174,0,360.3335420000367,,10,360.3093399000354,360.3335420000367,360.3335420000367,0.02009520004503429,362.60321819991805,[0.2],[0.454],[1],[0],[0],[2.2933438001200557],['target'],617962,001,2024-10-04_11h17.26.504,visual_search1,2024.2.1post4,59.90628259529839,2024-10-04 11h17.31.478449 +0530,
175,0,175,[-0.37],[0.088],[1],[0],[0],[1.7996040999423712],['target'],175,0,175,0,362.63351300009526,,10,362.62190630007535,362.63351300009526,362.63351300009526,0.018542399862781167,364.4221403999254,[-0.37],[0.088],[1],[0],[0],[1.7996040999423712],['target'],617962,001,2024-10-04_11h17.26.504,visual_search1,2024.2.1post4,59.90628259529839,2024-10-04 11h17.31.478449 +0530,
176,0,176,[0.072],[-0.356],[1],[0],[0],[1.4125814998988062],['target'],176,0,176,0,364.46690719993785,,10,364.4413026000839,364.46690719993785,364.46690719993785,0.019000399857759476,365.85447070002556,[0.072],[-0.356],[1],[0],[0],[1.4125814998988062],['target'],617962,001,2024-10-04_11h17.26.504,visual_search1,2024.2.1post4,59.90628259529839,2024-10-04 11h17.31.478449 +0530,
177,0,177,[0.378],[0.112],[1],[0],[0],[2.105518399970606],['target'],177,0,177,0,365.88341500004753,,5,365.8658553001005,365.88341500004753,365.88341500004753,0.011199099943041801,367.9721254000906,[0.378],[0.112],[1],[0],[0],[2.105518399970606],['target'],617962,001,2024-10-04_11h17.26.504,visual_search1,2024.2.1post4,59.90628259529839,2024-10-04 11h17.31.478449 +0530,
178,0,178,[0.016],[-0.064],[1],[0],[0],[2.0023391998838633],['target'],178,0,178,0,367.99950110004283,,5,367.98325759987347,367.99950110004283,367.99950110004283,0.010927199851721525,369.9862591000274,[0.016],[-0.064],[1],[0],[0],[2.0023391998838633],['target'],617962,001,2024-10-04_11h17.26.504,visual_search1,2024.2.1post4,59.90628259529839,2024-10-04 11h17.31.478449 +0530,
179,0,179,[-0.008],[-0.37],[1],[0],[0],[1.4719335997942835],['target'],179,0,179,0,370.01628510002047,,5,369.9973645999562,370.01628510002047,370.01628510002047,0.010907599935308099,371.47007629997097,[-0.008],[-0.37],[1],[0],[0],[1.4719335997942835],['target'],617962,001,2024-10-04_11h17.26.504,visual_search1,2024.2.1post4,59.90628259529839,2024-10-04 11h17.31.478449 +0530,
180,0,180,[0.412],[0.472],[1],[0],[0],[3.066178899956867],['target'],180,0,180,0,371.51562820002437,,10,371.5001926999539,371.51562820002437,371.51562820002437,0.029974799836054444,374.5668311000336,[0.412],[0.472],[1],[0],[0],[3.066178899956867],['target'],617962,001,2024-10-04_11h17.26.504,visual_search1,2024.2.1post4,59.90628259529839,2024-10-04 11h17.31.478449 +0530,
181,0,181,[0.122],[-0.308],[1],[0],[0],[1.7930771000683308],['target'],181,0,181,0,374.5987672000192,,5,374.57607809989713,374.5987672000192,374.5987672000192,0.009467300027608871,376.3699735000264,[0.122],[-0.308],[1],[0],[0],[1.7930771000683308],['target'],617962,001,2024-10-04_11h17.26.504,visual_search1,2024.2.1post4,59.90628259529839,2024-10-04 11h17.31.478449 +0530,
182,0,182,[0.078],[-0.08],[1],[0],[0],[1.4356427998282015],['target'],182,0,182,0,376.39842079998925,,5,376.380831199931,376.39842079998925,376.39842079998925,0.010652700206264853,377.81683139991947,[0.078],[-0.08],[1],[0],[0],[1.4356427998282015],['target'],617962,001,2024-10-04_11h17.26.504,visual_search1,2024.2.1post4,59.90628259529839,2024-10-04 11h17.31.478449 +0530,
183,0,183,[0.04],[0.058],[1],[0],[0],[1.4575612999033183],['target'],183,0,183,0,377.8320221998729,,5,377.8253452000208,377.8320221998729,377.8320221998729,0.008410200010985136,379.28324780007824,[0.04],[0.058],[1],[0],[0],[1.4575612999033183],['target'],617962,001,2024-10-04_11h17.26.504,visual_search1,2024.2.1post4,59.90628259529839,2024-10-04 11h17.31.478449 +0530,
184,0,184,[-0.01],[-0.09],[1],[0],[0],[1.7166527998633683],['target'],184,0,184,0,379.331227599876,,10,379.3006464999635,379.331227599876,379.331227599876,0.017299999948590994,381.01791719999164,[-0.01],[-0.09],[1],[0],[0],[1.7166527998633683],['target'],617962,001,2024-10-04_11h17.26.504,visual_search1,2024.2.1post4,59.90628259529839,2024-10-04 11h17.31.478449 +0530,
185,0,185,[0.48],[-0.024],[1],[0],[0],[3.5791909000836313],['target'],185,0,185,0,381.04784850007854,,10,381.0372886999976,381.04784850007854,381.04784850007854,0.01922379992902279,384.6172209000215,[0.48],[-0.024],[1],[0],[0],[3.5791909000836313],['target'],617962,001,2024-10-04_11h17.26.504,visual_search1,2024.2.1post4,59.90628259529839,2024-10-04 11h17.31.478449 +0530,
186,0,186,[0.344],[-0.212],[1],[0],[0],[1.8347686999477446],['target'],186,0,186,0,384.64718659990467,,5,384.63221439998597,384.64718659990467,384.64718659990467,0.014808999840170145,386.46779519994743,[0.344],[-0.212],[1],[0],[0],[1.8347686999477446],['target'],617962,001,2024-10-04_11h17.26.504,visual_search1,2024.2.1post4,59.90628259529839,2024-10-04 11h17.31.478449 +0530,
187,0,187,[-0.042],[-0.176],[1],[0],[0],[1.6942498998250812],['target'],187,0,187,0,386.5138773000799,,10,386.48738260008395,386.5138773000799,386.5138773000799,0.019414900103583932,388.1819953999948,[-0.042],[-0.176],[1],[0],[0],[1.6942498998250812],['target'],617962,001,2024-10-04_11h17.26.504,visual_search1,2024.2.1post4,59.90628259529839,2024-10-04 11h17.31.478449 +0530,
188,0,188,[0.184],[-0.344],[1],[0],[0],[1.5584908998571336],['target'],188,0,188,0,388.1972733999137,,5,388.19076190004125,388.1972733999137,388.1972733999137,0.008624600013718009,389.7496948998887,[0.184],[-0.344],[1],[0],[0],[1.5584908998571336],['target'],617962,001,2024-10-04_11h17.26.504,visual_search1,2024.2.1post4,59.90628259529839,2024-10-04 11h17.31.478449 +0530,
189,0,189,[-0.112],[0.096],[1],[0],[0],[1.498005400178954],['target'],189,0,189,0,389.78014039993286,,10,389.76776820002124,389.78014039993286,389.78014039993286,0.017991999862715602,391.2661284999922,[-0.112],[0.096],[1],[0],[0],[1.498005400178954],['target'],617962,001,2024-10-04_11h17.26.504,visual_search1,2024.2.1post4,59.90628259529839,2024-10-04 11h17.31.478449 +0530,
190,0,190,[0.094],[-0.138],[1],[0],[0],[2.630808599991724],['target'],190,0,190,0,391.2970420999918,,10,391.28460430004634,391.2970420999918,391.2970420999918,0.018378200009465218,393.91596039989963,[0.094],[-0.138],[1],[0],[0],[2.630808599991724],['target'],617962,001,2024-10-04_11h17.26.504,visual_search1,2024.2.1post4,59.90628259529839,2024-10-04 11h17.31.478449 +0530,
191,0,191,[0.048],[0.066],[1],[0],[0],[1.5199682000093162],['target'],191,0,191,0,393.9464441998862,,5,393.92761270003393,393.9464441998862,393.9464441998862,0.011453300016000867,395.44791210000403,[0.048],[0.066],[1],[0],[0],[1.5199682000093162],['target'],617962,001,2024-10-04_11h17.26.504,visual_search1,2024.2.1post4,59.90628259529839,2024-10-04 11h17.31.478449 +0530,
192,0,192,[0.258],[-0.364],[1],[0],[0],[1.5314734000712633],['target'],192,0,192,0,395.4792839998845,,10,395.46580790006556,395.4792839998845,395.4792839998845,0.017813100013881922,396.99772410001606,[0.258],[-0.364],[1],[0],[0],[1.5314734000712633],['target'],617962,001,2024-10-04_11h17.26.504,visual_search1,2024.2.1post4,59.90628259529839,2024-10-04 11h17.31.478449 +0530,
193,0,193,[0.372],[0.282],[1],[0],[0],[1.6754938000813127],['target'],193,0,193,0,397.02906080009416,,5,397.0059992999304,397.02906080009416,397.02906080009416,0.008158500073477626,398.6820843000896,[0.372],[0.282],[1],[0],[0],[1.6754938000813127],['target'],617962,001,2024-10-04_11h17.26.504,visual_search1,2024.2.1post4,59.90628259529839,2024-10-04 11h17.31.478449 +0530,
194,0,194,[-0.014],[-0.146],[1],[0],[0],[1.4160132000688463],['target'],194,0,194,0,398.7123066999484,,10,398.6988880999852,398.7123066999484,398.7123066999484,0.016670499928295612,400.1153502999805,[-0.014],[-0.146],[1],[0],[0],[1.4160132000688463],['target'],617962,001,2024-10-04_11h17.26.504,visual_search1,2024.2.1post4,59.90628259529839,2024-10-04 11h17.31.478449 +0530,
195,0,195,[-0.344],[0.238],[1],[0],[0],[2.479483800008893],['target'],195,0,195,0,400.1458988999948,,10,400.1341772999149,400.1458988999948,400.1458988999948,0.018599099945276976,402.614081799984,[-0.344],[0.238],[1],[0],[0],[2.479483800008893],['target'],617962,001,2024-10-04_11h17.26.504,visual_search1,2024.2.1post4,59.90628259529839,2024-10-04 11h17.31.478449 +0530,
196,0,196,[0.02],[0.054],[1],[0],[0],[2.9591890999581665],['target'],196,0,196,0,402.6448361999355,,5,402.62294299993664,402.6448361999355,402.6448361999355,0.008734200149774551,405.58266519987956,[0.02],[0.054],[1],[0],[0],[2.9591890999581665],['target'],617962,001,2024-10-04_11h17.26.504,visual_search1,2024.2.1post4,59.90628259529839,2024-10-04 11h17.31.478449 +0530,
197,0,197,[0.004],[-0.096],[1],[0],[0],[1.8956542999949306],['target'],197,0,197,0,405.6119615000207,,10,405.60100120003335,405.6119615000207,405.6119615000207,0.018189999973401427,407.49706150009297,[0.004],[-0.096],[1],[0],[0],[1.8956542999949306],['target'],617962,001,2024-10-04_11h17.26.504,visual_search1,2024.2.1post4,59.90628259529839,2024-10-04 11h17.31.478449 +0530,
198,0,198,[0.356],[0.132],[1],[0],[0],[2.932756899856031],['target'],198,0,198,0,407.5276136000175,,10,407.515677300049,407.5276136000175,407.5276136000175,0.018481099978089333,410.44912389991805,[0.356],[0.132],[1],[0],[0],[2.932756899856031],['target'],617962,001,2024-10-04_11h17.26.504,visual_search1,2024.2.1post4,59.90628259529839,2024-10-04 11h17.31.478449 +0530,
199,0,199,[0.214],[0.132],[1],[0],[0],[2.3277282998897135],['target'],199,0,199,0,410.49412550008856,,10,410.46730050002225,410.49412550008856,410.49412550008856,0.01798250013962388,412.79543170006946,[0.214],[0.132],[1],[0],[0],[2.3277282998897135],['target'],617962,001,2024-10-04_11h17.26.504,visual_search1,2024.2.1post4,59.90628259529839,2024-10-04 11h17.31.478449 +0530,
