stair.thisTrialN,stair.stepSize,stair.intensity,thisRow.t,notes,trial.started,fixation.started,grating.started,key_resp.started,fixation.stopped,grating.stopped,trial.stopped,stair.response,key_resp.rt,participant,session,date,expName,psychopyVersion,frameRate,expStart,
0,2,10.0,0.029740399913862348,,0.011965800076723099,0.029740399913862348,0.5285334999207407,0.5285334999207407,0.5454806999769062,1.5296219000592828,26.680554599966854,0,26.14751090016216,994786,001,2024-09-12_20h23.32.699,Adaptive_Staircase,2024.1.5,None,2024-09-12 20h23.37.502932 +0530,
1,1,12.0,26.693181700073183,,26.68069970002398,26.693181700073183,27.19312720000744,27.19312720000744,27.19312720000744,,27.56151959998533,1,0.35540759982541203,994786,001,2024-09-12_20h23.32.699,Adaptive_Staircase,2024.1.5,None,2024-09-12 20h23.37.502932 +0530,
2,1,11.0,27.576458200113848,,27.561651299940422,27.576458200113848,28.076204899931327,28.076204899931327,28.076204899931327,,28.345176999922842,1,0.25884280004538596,994786,001,2024-09-12_20h23.32.699,Adaptive_Staircase,2024.1.5,None,2024-09-12 20h23.37.502932 +0530,
3,1,11.0,28.35987289994955,,28.34530619997531,28.35987289994955,28.85943019995466,28.85943019995466,28.85943019995466,,29.043529000133276,1,0.17488460009917617,994786,001,2024-09-12_20h23.32.699,Adaptive_Staircase,2024.1.5,None,2024-09-12 20h23.37.502932 +0530,
4,1,11.0,29.058786100009456,,29.043625900056213,29.058786100009456,29.542537600034848,29.542537600034848,29.559221500065178,,29.594947000034153,1,0.04470909992232919,994786,001,2024-09-12_20h23.32.699,Adaptive_Staircase,2024.1.5,None,2024-09-12 20h23.37.502932 +0530,
5,1,10.0,29.60933390003629,,29.595100600039586,29.60933390003629,30.109364700037986,30.109364700037986,30.109364700037986,,30.144816500134766,1,0.0328233998734504,994786,001,2024-09-12_20h23.32.699,Adaptive_Staircase,2024.1.5,None,2024-09-12 20h23.37.502932 +0530,
6,1,10.0,30.159451100043952,,30.144945499952883,30.159451100043952,30.659116900060326,30.659116900060326,30.659116900060326,,30.71113930013962,0,0.03852019994519651,994786,001,2024-09-12_20h23.32.699,Adaptive_Staircase,2024.1.5,None,2024-09-12 20h23.37.502932 +0530,
7,1,11.0,30.72631400008686,,30.711274800123647,30.72631400008686,31.208258799975738,31.208258799975738,31.24218950001523,,31.32703369995579,1,0.10583869996480644,994786,001,2024-09-12_20h23.32.699,Adaptive_Staircase,2024.1.5,None,2024-09-12 20h23.37.502932 +0530,
8,1,11.0,31.341737000038847,,31.32715820008889,31.341737000038847,31.82742470013909,31.82742470013909,31.842378000030294,,31.894471100065857,1,0.055040800012648106,994786,001,2024-09-12_20h23.32.699,Adaptive_Staircase,2024.1.5,None,2024-09-12 20h23.37.502932 +0530,
9,1,11.0,31.909412200096995,,31.894600100116804,31.909412200096995,32.409221899928525,32.409221899928525,32.409221899928525,,32.661336899967864,0,0.2474921999964863,994786,001,2024-09-12_20h23.32.699,Adaptive_Staircase,2024.1.5,None,2024-09-12 20h23.37.502932 +0530,
10,1,12.0,32.675987400114536,,32.66146560013294,32.675987400114536,33.17576989997178,33.17576989997178,33.17576989997178,,33.410760400118306,1,0.2249289001338184,994786,001,2024-09-12_20h23.32.699,Adaptive_Staircase,2024.1.5,None,2024-09-12 20h23.37.502932 +0530,
11,1,12.0,33.425603500101715,,33.41090020001866,33.425603500101715,33.92557640001178,33.92557640001178,33.92557640001178,,34.02829180005938,1,None,994786,001,2024-09-12_20h23.32.699,Adaptive_Staircase,2024.1.5,None,2024-09-12 20h23.37.502932 +0530,
12,0.5,12.0,34.04237990011461,,34.028482200112194,34.04237990011461,34.54161090007983,34.54161090007983,34.55790999997407,,34.626549599925056,1,0.0758479000069201,994786,001,2024-09-12_20h23.32.699,Adaptive_Staircase,2024.1.5,None,2024-09-12 20h23.37.502932 +0530,
13,0.5,11.5,34.64169580000453,,34.62668769992888,34.64169580000453,35.14189129997976,35.14189129997976,35.14189129997976,,35.17615270009264,1,0.024356700014322996,994786,001,2024-09-12_20h23.32.699,Adaptive_Staircase,2024.1.5,None,2024-09-12 20h23.37.502932 +0530,
14,0.5,11.5,35.19157460005954,,35.176559099927545,35.19157460005954,35.692517900140956,35.692517900140956,35.692517900140956,,35.91063850000501,1,0.2021927998866886,994786,001,2024-09-12_20h23.32.699,Adaptive_Staircase,2024.1.5,None,2024-09-12 20h23.37.502932 +0530,
15,0.5,11.5,35.925289100036025,,35.91083290008828,35.925289100036025,36.425276699941605,36.425276699941605,36.425276699941605,,36.64554279996082,0,0.21619499986991286,994786,001,2024-09-12_20h23.32.699,Adaptive_Staircase,2024.1.5,None,2024-09-12 20h23.37.502932 +0530,
16,0.5,12.0,36.658579899929464,,36.64567880006507,36.658579899929464,37.15931460005231,37.15931460005231,37.15931460005231,,37.27744770003483,0,None,994786,001,2024-09-12_20h23.32.699,Adaptive_Staircase,2024.1.5,None,2024-09-12 20h23.37.502932 +0530,
17,0.5,12.5,37.29189549991861,,37.277582000009716,37.29189549991861,37.791924600023776,37.791924600023776,37.791924600023776,,37.8762485999614,0,0.07491119997575879,994786,001,2024-09-12_20h23.32.699,Adaptive_Staircase,2024.1.5,None,2024-09-12 20h23.37.502932 +0530,
18,0.5,13.0,37.89108670013957,,37.87633999995887,37.89108670013957,38.39160650013946,38.39160650013946,38.39160650013946,,38.66000370006077,1,0.2535055000334978,994786,001,2024-09-12_20h23.32.699,Adaptive_Staircase,2024.1.5,None,2024-09-12 20h23.37.502932 +0530,
19,0.5,13.0,38.67541950009763,,38.66016299999319,38.67541950009763,39.175416300073266,39.175416300073266,39.175416300073266,,39.393289499916136,1,0.2012219000607729,994786,001,2024-09-12_20h23.32.699,Adaptive_Staircase,2024.1.5,None,2024-09-12 20h23.37.502932 +0530,
20,0.5,13.0,39.40825630002655,,39.39349570008926,39.40825630002655,39.90809369995259,39.90809369995259,39.90809369995259,,39.94344469998032,1,0.017941600177437067,994786,001,2024-09-12_20h23.32.699,Adaptive_Staircase,2024.1.5,None,2024-09-12 20h23.37.502932 +0530,
21,0.5,12.5,39.95814409991726,,39.94358399999328,39.95814409991726,40.4588699999731,40.4588699999731,40.4588699999731,,40.59349390002899,1,None,994786,001,2024-09-12_20h23.32.699,Adaptive_Staircase,2024.1.5,None,2024-09-12 20h23.37.502932 +0530,
22,0.5,12.5,40.60835240012966,,40.593620700063184,40.60835240012966,41.10824179998599,41.10824179998599,41.10824179998599,,41.22813730011694,1,0.10777670005336404,994786,001,2024-09-12_20h23.32.699,Adaptive_Staircase,2024.1.5,None,2024-09-12 20h23.37.502932 +0530,
23,0.5,12.5,41.241220799973235,,41.2282652000431,41.241220799973235,41.741259899921715,41.741259899921715,41.741259899921715,,41.75979649997316,1,0.011058199917897582,994786,001,2024-09-12_20h23.32.699,Adaptive_Staircase,2024.1.5,None,2024-09-12 20h23.37.502932 +0530,
24,0.5,12.0,41.77454770007171,,41.7599963999819,41.77454770007171,42.27380600012839,42.27380600012839,42.27380600012839,,42.543230399955064,0,0.26005490007810295,994786,001,2024-09-12_20h23.32.699,Adaptive_Staircase,2024.1.5,None,2024-09-12 20h23.37.502932 +0530,
25,0.5,12.5,42.558086399920285,,42.54336469992995,42.558086399920285,43.05764500005171,43.05764500005171,43.05764500005171,,43.10969200008549,1,0.03620480000972748,994786,001,2024-09-12_20h23.32.699,Adaptive_Staircase,2024.1.5,None,2024-09-12 20h23.37.502932 +0530,
26,0.5,12.5,43.12443229998462,,43.10982050001621,43.12443229998462,43.62442300003022,43.62442300003022,43.62442300003022,,43.642734799999744,0,0.007805800065398216,994786,001,2024-09-12_20h23.32.699,Adaptive_Staircase,2024.1.5,None,2024-09-12 20h23.37.502932 +0530,
27,0.5,13.0,43.6574633999262,,43.6428674000781,43.6574633999262,44.157558399951085,44.157558399951085,44.157558399951085,,44.193054100032896,0,0.028893799986690283,994786,001,2024-09-12_20h23.32.699,Adaptive_Staircase,2024.1.5,None,2024-09-12 20h23.37.502932 +0530,
28,0.5,13.5,44.20773430005647,,44.193186700111255,44.20773430005647,44.70723500009626,44.70723500009626,44.70723500009626,,44.75959019991569,1,0.039842800004407763,994786,001,2024-09-12_20h23.32.699,Adaptive_Staircase,2024.1.5,None,2024-09-12 20h23.37.502932 +0530,
29,0.5,13.5,44.77412510011345,,44.75971770007163,44.77412510011345,45.27393819997087,45.27393819997087,45.27393819997087,,45.34298410010524,0,0.05712269991636276,994786,001,2024-09-12_20h23.32.699,Adaptive_Staircase,2024.1.5,None,2024-09-12 20h23.37.502932 +0530,
30,0.5,14.0,45.35730640008114,,45.34312819992192,45.35730640008114,45.85742070013657,45.85742070013657,45.85742070013657,,45.95933789992705,0,0.08501729997806251,994786,001,2024-09-12_20h23.32.699,Adaptive_Staircase,2024.1.5,None,2024-09-12 20h23.37.502932 +0530,
31,0.5,14.5,45.97402700013481,,45.959471200127155,45.97402700013481,46.47419139998965,46.47419139998965,46.47419139998965,,46.591916900128126,0,0.10644170013256371,994786,001,2024-09-12_20h23.32.699,Adaptive_Staircase,2024.1.5,None,2024-09-12 20h23.37.502932 +0530,
32,0.5,15.0,46.606859599938616,,46.59203479997814,46.606859599938616,47.10737990005873,47.10737990005873,47.10737990005873,,47.1930867000483,0,0.06983860000036657,994786,001,2024-09-12_20h23.32.699,Adaptive_Staircase,2024.1.5,None,2024-09-12 20h23.37.502932 +0530,
33,0.5,15.5,47.20765420002863,,47.193219100125134,47.20765420002863,47.7069904000964,47.7069904000964,47.7069904000964,,47.82587220007554,0,0.11247950000688434,994786,001,2024-09-12_20h23.32.699,Adaptive_Staircase,2024.1.5,None,2024-09-12 20h23.37.502932 +0530,
34,0.5,16.0,47.84035810013302,,47.82604359998368,47.84035810013302,48.34012629999779,48.34012629999779,48.34012629999779,,48.52555439993739,1,0.17341649997979403,994786,001,2024-09-12_20h23.32.699,Adaptive_Staircase,2024.1.5,None,2024-09-12 20h23.37.502932 +0530,
35,0.5,16.0,48.540372600080445,,48.525686900131404,48.540372600080445,49.040236100088805,49.040236100088805,49.040236100088805,,49.09208450000733,0,0.041544900042936206,994786,001,2024-09-12_20h23.32.699,Adaptive_Staircase,2024.1.5,None,2024-09-12 20h23.37.502932 +0530,
36,0.5,16.5,49.10699569992721,,49.09227739996277,49.10699569992721,49.6071751001291,49.6071751001291,49.6071751001291,,49.692234999965876,0,0.0702076000161469,994786,001,2024-09-12_20h23.32.699,Adaptive_Staircase,2024.1.5,None,2024-09-12 20h23.37.502932 +0530,
37,0.5,17.0,49.70690310001373,,49.69236860005185,49.70690310001373,50.20684160012752,50.20684160012752,50.20684160012752,,50.24309549992904,1,0.03321640007197857,994786,001,2024-09-12_20h23.32.699,Adaptive_Staircase,2024.1.5,None,2024-09-12 20h23.37.502932 +0530,
38,0.5,17.0,50.2564234000165,,50.243221800075844,50.2564234000165,50.756803600117564,50.756803600117564,50.756803600117564,,50.85890120011754,1,0.08530159993097186,994786,001,2024-09-12_20h23.32.699,Adaptive_Staircase,2024.1.5,None,2024-09-12 20h23.37.502932 +0530,
39,0.5,17.0,50.87339289998636,,50.85902580013499,50.87339289998636,51.37333450000733,51.37333450000733,51.37333450000733,,51.47524329996668,1,0.09312830003909767,994786,001,2024-09-12_20h23.32.699,Adaptive_Staircase,2024.1.5,None,2024-09-12 20h23.37.502932 +0530,
40,0.5,16.5,51.4900221999269,,51.47537610004656,51.4900221999269,51.989936399972066,51.989936399972066,51.989936399972066,,52.108713099965826,0,0.10434349998831749,994786,001,2024-09-12_20h23.32.699,Adaptive_Staircase,2024.1.5,None,2024-09-12 20h23.37.502932 +0530,
41,0.5,17.0,52.12313810014166,,52.10884530004114,52.12313810014166,52.62333000008948,52.62333000008948,52.62333000008948,,52.75859969994053,0,0.11854209983721375,994786,001,2024-09-12_20h23.32.699,Adaptive_Staircase,2024.1.5,None,2024-09-12 20h23.37.502932 +0530,
42,0.5,17.5,52.77322169998661,,52.7587315000128,52.77322169998661,53.27581120003015,53.27581120003015,53.27581120003015,,53.42496019997634,1,0.13606649986468256,994786,001,2024-09-12_20h23.32.699,Adaptive_Staircase,2024.1.5,None,2024-09-12 20h23.37.502932 +0530,
43,0.5,17.5,53.439798899926245,,53.42508940002881,53.439798899926245,53.93957970011979,53.93957970011979,53.93957970011979,,54.125909300055355,1,0.18337170011363924,994786,001,2024-09-12_20h23.32.699,Adaptive_Staircase,2024.1.5,None,2024-09-12 20h23.37.502932 +0530,
44,0.5,17.5,54.14011380006559,,54.12608850002289,54.14011380006559,54.64013290009461,54.64013290009461,54.64013290009461,,54.77369760000147,0,0.11809480004012585,994786,001,2024-09-12_20h23.32.699,Adaptive_Staircase,2024.1.5,None,2024-09-12 20h23.37.502932 +0530,
45,0.5,18.0,54.789655399974436,,54.773798800073564,54.789655399974436,55.272969000041485,55.272969000041485,55.2899722000584,,55.45660510007292,0,0.17414719983935356,994786,001,2024-09-12_20h23.32.699,Adaptive_Staircase,2024.1.5,None,2024-09-12 20h23.37.502932 +0530,
46,0.5,18.5,55.47189339995384,,55.45668400009163,55.47189339995384,55.95616820012219,55.95616820012219,55.972828099969774,,56.091383800143376,0,0.12368560000322759,994786,001,2024-09-12_20h23.32.699,Adaptive_Staircase,2024.1.5,None,2024-09-12 20h23.37.502932 +0530,
47,0.5,19.0,56.10631820000708,,56.09151550009847,56.10631820000708,56.606237299973145,56.606237299973145,56.606237299973145,,56.741287500131875,1,0.12908290000632405,994786,001,2024-09-12_20h23.32.699,Adaptive_Staircase,2024.1.5,None,2024-09-12 20h23.37.502932 +0530,
48,0.5,19.0,56.756072300020605,,56.741414699936286,56.756072300020605,57.25593139999546,57.25593139999546,57.25593139999546,,57.376160399988294,0,0.11766070011071861,994786,001,2024-09-12_20h23.32.699,Adaptive_Staircase,2024.1.5,None,2024-09-12 20h23.37.502932 +0530,
49,0.5,19.5,57.38928320002742,,57.376293200068176,57.38928320002742,57.88926839991473,57.88926839991473,57.88926839991473,,58.05788190010935,0,0.15776070021092892,994786,001,2024-09-12_20h23.32.699,Adaptive_Staircase,2024.1.5,None,2024-09-12 20h23.37.502932 +0530,
50,0.5,20.0,58.07226109993644,,58.05801509995945,58.07226109993644,58.57236839993857,58.57236839993857,58.57236839993857,,58.69110670010559,0,0.10529900016263127,994786,001,2024-09-12_20h23.32.699,Adaptive_Staircase,2024.1.5,None,2024-09-12 20h23.37.502932 +0530,
51,0.5,20.0,58.70643080002628,,58.69124040007591,58.70643080002628,59.205546099925414,59.205546099925414,59.205546099925414,,59.3744109000545,1,0.15972510003484786,994786,001,2024-09-12_20h23.32.699,Adaptive_Staircase,2024.1.5,None,2024-09-12 20h23.37.502932 +0530,
52,0.5,20.0,59.388971199980006,,59.37453750008717,59.388971199980006,59.8887332000304,59.8887332000304,59.8887332000304,,60.04090510006063,1,0.13572110002860427,994786,001,2024-09-12_20h23.32.699,Adaptive_Staircase,2024.1.5,None,2024-09-12 20h23.37.502932 +0530,
53,0.5,20.0,60.055664099985734,,60.041035200003535,60.055664099985734,60.55555419996381,60.55555419996381,60.55555419996381,,60.6408774999436,1,0.07203639997169375,994786,001,2024-09-12_20h23.32.699,Adaptive_Staircase,2024.1.5,None,2024-09-12 20h23.37.502932 +0530,
54,0.5,19.5,60.65544160013087,,60.64101110002957,60.65544160013087,61.154758099932224,61.154758099932224,61.154758099932224,,61.22408040007576,1,0.06073989998549223,994786,001,2024-09-12_20h23.32.699,Adaptive_Staircase,2024.1.5,None,2024-09-12 20h23.37.502932 +0530,
55,0.5,19.5,61.238792000105605,,61.224227299913764,61.238792000105605,61.7384250999894,61.7384250999894,61.7384250999894,,61.858704400015995,0,0.11796599999070168,994786,001,2024-09-12_20h23.32.699,Adaptive_Staircase,2024.1.5,None,2024-09-12 20h23.37.502932 +0530,
56,0.5,20.0,61.87205379991792,,61.85883520008065,61.87205379991792,62.37183260009624,62.37183260009624,62.37183260009624,,62.45719709992409,1,0.07051200000569224,994786,001,2024-09-12_20h23.32.699,Adaptive_Staircase,2024.1.5,None,2024-09-12 20h23.37.502932 +0530,
57,0.5,20.0,62.47191740013659,,62.45732420007698,62.47191740013659,62.97183359996416,62.97183359996416,62.97183359996416,,63.107498000143096,0,0.12223310000263155,994786,001,2024-09-12_20h23.32.699,Adaptive_Staircase,2024.1.5,None,2024-09-12 20h23.37.502932 +0530,
58,0.5,20.0,63.12226560013369,,63.10763179999776,63.12226560013369,63.62177369999699,63.62177369999699,63.62177369999699,,63.64043439994566,0,0.005465399939566851,994786,001,2024-09-12_20h23.32.699,Adaptive_Staircase,2024.1.5,None,2024-09-12 20h23.37.502932 +0530,
59,0.5,20.0,63.655286099994555,,63.64056670013815,63.655286099994555,64.15452779992484,64.15452779992484,64.15452779992484,,64.20637989998795,1,0.048733299830928445,994786,001,2024-09-12_20h23.32.699,Adaptive_Staircase,2024.1.5,None,2024-09-12 20h23.37.502932 +0530,
60,0.5,20.0,64.22206549998373,,64.20647360011935,64.22206549998373,64.72132389992476,64.72132389992476,64.72132389992476,,64.80687230010517,0,0.077583699952811,994786,001,2024-09-12_20h23.32.699,Adaptive_Staircase,2024.1.5,None,2024-09-12 20h23.37.502932 +0530,
61,0.5,20.0,64.82162300008349,,64.80700389994308,64.82162300008349,65.32147720013745,65.32147720013745,65.32147720013745,,65.40817770012654,1,0.08269229996949434,994786,001,2024-09-12_20h23.32.699,Adaptive_Staircase,2024.1.5,None,2024-09-12 20h23.37.502932 +0530,
62,0.5,20.0,65.42149790003896,,65.40830309991725,65.42149790003896,65.9212740000803,65.9212740000803,65.9212740000803,,66.07373970001936,1,0.14189490000717342,994786,001,2024-09-12_20h23.32.699,Adaptive_Staircase,2024.1.5,None,2024-09-12 20h23.37.502932 +0530,
63,0.5,20.0,66.08797640004195,,66.07390760001726,66.08797640004195,66.58791120001115,66.58791120001115,66.58791120001115,,66.6732477999758,0,0.06855379999615252,994786,001,2024-09-12_20h23.32.699,Adaptive_Staircase,2024.1.5,None,2024-09-12 20h23.37.502932 +0530,
64,0.5,20.0,66.68804619996808,,66.67338300007395,66.68804619996808,67.18795679998584,67.18795679998584,67.18795679998584,,67.25659180013463,1,0.05437929998151958,994786,001,2024-09-12_20h23.32.699,Adaptive_Staircase,2024.1.5,None,2024-09-12 20h23.37.502932 +0530,
65,0.5,20.0,67.27158339996822,,67.25671990006231,67.27158339996822,67.77116110012867,67.77116110012867,67.77116110012867,,68.07312780013308,0,0.2887634998187423,994786,001,2024-09-12_20h23.32.699,Adaptive_Staircase,2024.1.5,None,2024-09-12 20h23.37.502932 +0530,
66,0.5,20.0,68.0878729999531,,68.07328150002286,68.0878729999531,68.5871441999916,68.5871441999916,68.5871441999916,,68.63852589996532,1,0.0409236999694258,994786,001,2024-09-12_20h23.32.699,Adaptive_Staircase,2024.1.5,None,2024-09-12 20h23.37.502932 +0530,
67,0.5,20.0,68.65395099995658,,68.63861220004037,68.65395099995658,69.137669299962,69.137669299962,69.15488440007903,,69.25631850003265,0,0.10457110009156168,994786,001,2024-09-12_20h23.32.699,Adaptive_Staircase,2024.1.5,None,2024-09-12 20h23.37.502932 +0530,
68,0.5,20.0,69.27140490012243,,69.25649369996972,69.27140490012243,69.77091889991425,69.77091889991425,69.77091889991425,,69.87280700006522,1,0.0959756001830101,994786,001,2024-09-12_20h23.32.699,Adaptive_Staircase,2024.1.5,None,2024-09-12 20h23.37.502932 +0530,
69,0.5,20.0,69.88772840006277,,69.87294999998994,69.88772840006277,70.38744259998202,70.38744259998202,70.38744259998202,,70.48951940005645,1,0.09037170000374317,994786,001,2024-09-12_20h23.32.699,Adaptive_Staircase,2024.1.5,None,2024-09-12 20h23.37.502932 +0530,
70,0.5,20.0,70.50436570006423,,70.48964620009065,70.50436570006423,71.00400660000741,71.00400660000741,71.00400660000741,,71.10608900012448,1,0.08619650010950863,994786,001,2024-09-12_20h23.32.699,Adaptive_Staircase,2024.1.5,None,2024-09-12 20h23.37.502932 +0530,
71,0.5,19.5,71.12081760005094,,71.1062235001009,71.12081760005094,71.62151170009747,71.62151170009747,71.62151170009747,,72.17367350007407,1,0.549583800137043,994786,001,2024-09-12_20h23.32.699,Adaptive_Staircase,2024.1.5,None,2024-09-12 20h23.37.502932 +0530,
72,0.5,19.5,72.18723720009439,,72.17380540003069,72.18723720009439,72.68736370000988,72.68736370000988,72.68736370000988,,72.85584120010026,1,0.15191180002875626,994786,001,2024-09-12_20h23.32.699,Adaptive_Staircase,2024.1.5,None,2024-09-12 20h23.37.502932 +0530,
73,0.5,19.5,72.8706881001126,,72.85604580002837,72.8706881001126,73.37142480001785,73.37142480001785,73.37142480001785,,73.67244910006411,0,0.29078739997930825,994786,001,2024-09-12_20h23.32.699,Adaptive_Staircase,2024.1.5,None,2024-09-12 20h23.37.502932 +0530,
74,0.5,20.0,73.68715319992043,,73.67257870011963,73.68715319992043,74.18726800009608,74.18726800009608,74.18726800009608,,74.32332929992117,0,None,994786,001,2024-09-12_20h23.32.699,Adaptive_Staircase,2024.1.5,None,2024-09-12 20h23.37.502932 +0530,
75,0.5,20.0,74.33709380007349,,74.32346149999648,74.33709380007349,74.8367886999622,74.8367886999622,74.8367886999622,,75.17106220009737,1,0.32934080017730594,994786,001,2024-09-12_20h23.32.699,Adaptive_Staircase,2024.1.5,None,2024-09-12 20h23.37.502932 +0530,
76,0.5,20.0,75.18612330011092,,75.17119579995051,75.18612330011092,75.67028190009296,75.67028190009296,75.68670760001987,,75.7559211999178,0,0.0710010000038892,994786,001,2024-09-12_20h23.32.699,Adaptive_Staircase,2024.1.5,None,2024-09-12 20h23.37.502932 +0530,
77,0.5,20.0,75.77037280006334,,75.75605570012704,75.77037280006334,76.27008639997803,76.27008639997803,76.27008639997803,,76.70530860009603,1,0.429097400046885,994786,001,2024-09-12_20h23.32.699,Adaptive_Staircase,2024.1.5,None,2024-09-12 20h23.37.502932 +0530,
78,0.5,20.0,76.7199306001421,,76.70543490001,76.7199306001421,77.22048159991391,77.22048159991391,77.22048159991391,,77.45497349998914,0,0.21991440001875162,994786,001,2024-09-12_20h23.32.699,Adaptive_Staircase,2024.1.5,None,2024-09-12 20h23.37.502932 +0530,
79,0.5,20.0,77.46999010001309,,77.45510459993966,77.46999010001309,77.95326169999316,77.95326169999316,77.97002659994178,,78.12293640011922,1,0.16539440001361072,994786,001,2024-09-12_20h23.32.699,Adaptive_Staircase,2024.1.5,None,2024-09-12 20h23.37.502932 +0530,
80,0.5,20.0,78.13662649993785,,78.12306639994495,78.13662649993785,78.63673999998719,78.63673999998719,78.63673999998719,,78.77171969995834,1,0.12068920000456274,994786,001,2024-09-12_20h23.32.699,Adaptive_Staircase,2024.1.5,None,2024-09-12 20h23.37.502932 +0530,
81,0.5,20.0,78.7864463001024,,78.77184700011276,78.7864463001024,79.28672310011461,79.28672310011461,79.28672310011461,,79.43832890014164,1,0.13936379994265735,994786,001,2024-09-12_20h23.32.699,Adaptive_Staircase,2024.1.5,None,2024-09-12 20h23.37.502932 +0530,
82,0.5,19.5,79.45250879996456,,79.43851840007119,79.45250879996456,79.95300330012105,79.95300330012105,79.95300330012105,,80.00503240013495,0,0.042552600149065256,994786,001,2024-09-12_20h23.32.699,Adaptive_Staircase,2024.1.5,None,2024-09-12 20h23.37.502932 +0530,
83,0.5,20.0,80.01986130001023,,80.00516579998657,80.01986130001023,80.51953150006011,80.51953150006011,80.51953150006011,,80.70515669998713,0,0.1786654000170529,994786,001,2024-09-12_20h23.32.699,Adaptive_Staircase,2024.1.5,None,2024-09-12 20h23.37.502932 +0530,
84,0.5,20.0,80.71949089993723,,80.7052929000929,80.71949089993723,81.21998860011809,81.21998860011809,81.21998860011809,,81.38785000005737,0,0.15166869992390275,994786,001,2024-09-12_20h23.32.699,Adaptive_Staircase,2024.1.5,None,2024-09-12 20h23.37.502932 +0530,
85,0.5,20.0,81.40274489996955,,81.38798539992422,81.40274489996955,81.90302670001984,81.90302670001984,81.90302670001984,,82.00494459993206,1,0.08529570000246167,994786,001,2024-09-12_20h23.32.699,Adaptive_Staircase,2024.1.5,None,2024-09-12 20h23.37.502932 +0530,
86,0.5,20.0,82.0194274999667,,82.00507299997844,82.0194274999667,82.51871360000223,82.51871360000223,82.51871360000223,,82.68695660005324,1,0.15333690005354583,994786,001,2024-09-12_20h23.32.699,Adaptive_Staircase,2024.1.5,None,2024-09-12 20h23.37.502932 +0530,
87,0.5,20.0,82.70193400001153,,82.68705970002338,82.70193400001153,83.20242520002648,83.20242520002648,83.20242520002648,,83.40377749991603,0,0.1860943001229316,994786,001,2024-09-12_20h23.32.699,Adaptive_Staircase,2024.1.5,None,2024-09-12 20h23.37.502932 +0530,
88,0.5,20.0,83.41854250011966,,83.40391550003551,83.41854250011966,83.9030051000882,83.9030051000882,83.92009710008278,,83.92154200002551,1,0.01435240008868277,994786,001,2024-09-12_20h23.32.699,Adaptive_Staircase,2024.1.5,None,2024-09-12 20h23.37.502932 +0530,
89,0.5,20.0,83.93555400008336,,83.92164440010674,83.93555400008336,84.43529239995405,84.43529239995405,84.43529239995405,,84.52024649991654,1,0.07495429995469749,994786,001,2024-09-12_20h23.32.699,Adaptive_Staircase,2024.1.5,None,2024-09-12 20h23.37.502932 +0530,
90,0.5,20.0,84.53531700000167,,84.52031890000217,84.53531700000167,85.03568650013767,85.03568650013767,85.03568650013767,,85.15450250008143,1,None,994786,001,2024-09-12_20h23.32.699,Adaptive_Staircase,2024.1.5,None,2024-09-12 20h23.37.502932 +0530,
91,0.5,19.5,85.16907669999637,,85.1546410000883,85.16907669999637,85.67076519993134,85.67076519993134,85.67076519993134,,85.7888875999488,0,0.11591530009172857,994786,001,2024-09-12_20h23.32.699,Adaptive_Staircase,2024.1.5,None,2024-09-12 20h23.37.502932 +0530,
92,0.5,20.0,85.80220249993727,,85.78902089991607,85.80220249993727,86.30200139991939,86.30200139991939,86.30200139991939,,86.3551755999215,0,0.04686739994212985,994786,001,2024-09-12_20h23.32.699,Adaptive_Staircase,2024.1.5,None,2024-09-12 20h23.37.502932 +0530,
93,0.5,20.0,86.36886800010689,,86.3553086000029,86.36886800010689,86.8686699999962,86.8686699999962,86.8686699999962,,86.88781350012869,1,0.013965199934318662,994786,001,2024-09-12_20h23.32.699,Adaptive_Staircase,2024.1.5,None,2024-09-12 20h23.37.502932 +0530,
94,0.5,20.0,86.90319350012578,,86.88794200005941,86.90319350012578,87.40193690010346,87.40193690010346,87.41901589999907,,87.42095030006021,0,0.01195090007968247,994786,001,2024-09-12_20h23.32.699,Adaptive_Staircase,2024.1.5,None,2024-09-12 20h23.37.502932 +0530,
95,0.5,20.0,87.43529070005752,,87.42107990011573,87.43529070005752,87.93613029993139,87.93613029993139,87.93613029993139,,88.03736479999498,1,0.08631060016341507,994786,001,2024-09-12_20h23.32.699,Adaptive_Staircase,2024.1.5,None,2024-09-12 20h23.37.502932 +0530,
96,0.5,20.0,88.05232980009168,,88.03749150014482,88.05232980009168,88.55181930004619,88.55181930004619,88.55181930004619,,88.57056819996797,0,0.011221799999475479,994786,001,2024-09-12_20h23.32.699,Adaptive_Staircase,2024.1.5,None,2024-09-12 20h23.37.502932 +0530,
97,0.5,20.0,88.58521759998985,,88.57069940003566,88.58521759998985,89.08502759994008,89.08502759994008,89.08502759994008,,89.20370579999872,0,0.11043669981881976,994786,001,2024-09-12_20h23.32.699,Adaptive_Staircase,2024.1.5,None,2024-09-12 20h23.37.502932 +0530,
98,0.5,20.0,89.2185786999762,,89.20383809995838,89.2185786999762,89.71845649997704,89.71845649997704,89.71845649997704,,89.77081279992126,1,0.036240000044927,994786,001,2024-09-12_20h23.32.699,Adaptive_Staircase,2024.1.5,None,2024-09-12 20h23.37.502932 +0530,
99,0.5,20.0,89.78516190010123,,89.77094170008786,89.78516190010123,90.2850053999573,90.2850053999573,90.2850053999573,,90.55366210010834,0,0.2527201999910176,994786,001,2024-09-12_20h23.32.699,Adaptive_Staircase,2024.1.5,None,2024-09-12 20h23.37.502932 +0530,
