trials.thisRepN,trials.thisTrialN,trials.thisN,trials.thisIndex,thisRow.t,notes,trial.started,fixation.started,key_resp.started,fixation.stopped,trial.stopped,key_resp.keys,key_resp.corr,key_resp.rt,key_resp.duration,tilt,participant,session,date,expName,psychopyVersion,frameRate,expStart,
0,0,0,0,0.025315100036095828,,0.02107710001291707,0.025315100036095828,1.0142672000220045,1.0315930000506341,2.3859356000320986,down,1,1.3565706000081263,None,4,117517,001,2024-09-19_01h55.58.119,signaldetection,2024.1.5,None,2024-09-19 01h56.02.964394 +0530,
1,0,1,0,2.3972657000413164,,2.387580600043293,2.3972657000413164,3.397142400033772,3.397142400033772,4.298147300025448,up,0,0.8886520999949425,None,1,117517,001,2024-09-19_01h55.58.119,signaldetection,2024.1.5,None,2024-09-19 01h56.02.964394 +0530,
2,0,2,0,4.313964600034524,,4.300230599998031,4.313964600034524,5.3139060999965295,5.3139060999965295,6.048392500029877,down,1,0.7237131000147201,None,4,117517,001,2024-09-19_01h55.58.119,signaldetection,2024.1.5,None,2024-09-19 01h56.02.964394 +0530,
3,0,3,0,6.063792000000831,,6.049856700003147,6.063792000000831,7.063633800018579,7.063633800018579,8.564826900023036,down,1,1.4917273000464775,None,4,117517,001,2024-09-19_01h55.58.119,signaldetection,2024.1.5,None,2024-09-19 01h56.02.964394 +0530,
4,0,4,0,8.579999500012491,,8.56730830000015,8.579999500012491,9.579732100013644,9.579732100013644,10.43163090001326,up,1,0.8461765999672934,None,0,117517,001,2024-09-19_01h55.58.119,signaldetection,2024.1.5,None,2024-09-19 01h56.02.964394 +0530,
5,0,5,0,10.446046500001103,,10.433771700016223,10.446046500001103,11.445837800041772,11.445837800041772,12.365623900026549,up,1,0.9151981000322849,None,0,117517,001,2024-09-19_01h55.58.119,signaldetection,2024.1.5,None,2024-09-19 01h56.02.964394 +0530,
6,0,6,0,12.3793104000506,,12.367853400006425,12.3793104000506,13.37915900000371,13.37915900000371,14.099057000014,up,1,0.7148747000028379,None,0,117517,001,2024-09-19_01h55.58.119,signaldetection,2024.1.5,None,2024-09-19 01h56.02.964394 +0530,
7,0,7,0,14.11247450002702,,14.10207210003864,14.11247450002702,15.112431200046558,15.112431200046558,16.86322930001188,up,1,1.7341281999833882,None,0,117517,001,2024-09-19_01h55.58.119,signaldetection,2024.1.5,None,2024-09-19 01h56.02.964394 +0530,
8,0,8,0,16.87871320004342,,16.864558000001125,16.87871320004342,17.87903880001977,17.87903880001977,18.612883000052534,down,1,0.7226524000288919,None,-5,117517,001,2024-09-19_01h55.58.119,signaldetection,2024.1.5,None,2024-09-19 01h56.02.964394 +0530,
9,0,9,0,18.62878470000578,,18.614507900027093,18.62878470000578,19.62891180004226,19.62891180004226,20.31214190000901,down,1,0.6668711999664083,None,-3,117517,001,2024-09-19_01h55.58.119,signaldetection,2024.1.5,None,2024-09-19 01h56.02.964394 +0530,
10,0,10,0,20.328701200021897,,20.31361690000631,20.328701200021897,21.328559400048107,21.328559400048107,22.212158200039994,up,1,0.8738162000081502,None,0,117517,001,2024-09-19_01h55.58.119,signaldetection,2024.1.5,None,2024-09-19 01h56.02.964394 +0530,
11,0,11,0,22.228156900033355,,22.2145457000006,22.228156900033355,23.228553700027987,23.228553700027987,24.079687700024806,down,1,0.8447433999972418,None,-5,117517,001,2024-09-19_01h55.58.119,signaldetection,2024.1.5,None,2024-09-19 01h56.02.964394 +0530,
12,0,12,0,24.09452310000779,,24.081945400044788,24.09452310000779,25.09428120002849,25.09428120002849,26.07994080003118,down,1,0.9814907999825664,None,-3,117517,001,2024-09-19_01h55.58.119,signaldetection,2024.1.5,None,2024-09-19 01h56.02.964394 +0530,
13,0,13,0,26.094227400026284,,26.082251800049562,26.094227400026284,27.0944196000346,27.0944196000346,27.812037600029726,up,1,0.7132187000242993,None,0,117517,001,2024-09-19_01h55.58.119,signaldetection,2024.1.5,None,2024-09-19 01h56.02.964394 +0530,
14,0,14,0,27.82787840004312,,27.81480069999816,27.82787840004312,28.827455900027417,28.827455900027417,30.495720500010066,down,1,1.6641076999949291,None,4,117517,001,2024-09-19_01h55.58.119,signaldetection,2024.1.5,None,2024-09-19 01h56.02.964394 +0530,
15,0,15,0,30.510852300038096,,30.49783380003646,30.510852300038096,31.510253600019496,31.510253600019496,32.544623900030274,up,1,1.0235856999643147,None,0,117517,001,2024-09-19_01h55.58.119,signaldetection,2024.1.5,None,2024-09-19 01h56.02.964394 +0530,
16,0,16,0,32.55994470004225,,32.547224700043444,32.55994470004225,33.5600315000047,33.5600315000047,34.67899520002538,down,1,1.1036901999614201,None,-2,117517,001,2024-09-19_01h55.58.119,signaldetection,2024.1.5,None,2024-09-19 01h56.02.964394 +0530,
17,0,17,0,34.693289900023956,,34.68074060004437,34.693289900023956,35.6927625000244,35.6927625000244,36.31144780002069,down,1,0.6057715999777429,None,-4,117517,001,2024-09-19_01h55.58.119,signaldetection,2024.1.5,None,2024-09-19 01h56.02.964394 +0530,
18,0,18,0,36.326494200038724,,36.313705900043715,36.326494200038724,37.32654390000971,37.32654390000971,38.37710969999898,down,1,1.039100399997551,None,2,117517,001,2024-09-19_01h55.58.119,signaldetection,2024.1.5,None,2024-09-19 01h56.02.964394 +0530,
19,0,19,0,38.392394400027115,,38.379702000005636,38.392394400027115,39.39245959999971,39.39245959999971,40.16051360004349,up,1,0.7643688999814913,None,0,117517,001,2024-09-19_01h55.58.119,signaldetection,2024.1.5,None,2024-09-19 01h56.02.964394 +0530,
20,0,20,0,40.175571600033436,,40.16196360002505,40.175571600033436,41.17635380005231,41.17635380005231,41.99420940002892,down,1,0.8041967999888584,None,-3,117517,001,2024-09-19_01h55.58.119,signaldetection,2024.1.5,None,2024-09-19 01h56.02.964394 +0530,
21,0,21,0,42.00900840002578,,41.99568280001404,42.00900840002578,43.00885110005038,43.00885110005038,43.8764556000242,up,1,0.856653599999845,None,0,117517,001,2024-09-19_01h55.58.119,signaldetection,2024.1.5,None,2024-09-19 01h56.02.964394 +0530,
22,0,22,0,43.89206199999899,,43.87824020005064,43.89206199999899,44.89173190004658,44.89173190004658,46.11018720001448,up,1,1.213874200009741,None,0,117517,001,2024-09-19_01h55.58.119,signaldetection,2024.1.5,None,2024-09-19 01h56.02.964394 +0530,
23,0,23,0,46.12516779999714,,46.112401300051715,46.12516779999714,47.12520730000688,47.12520730000688,47.87634660000913,down,1,0.7400966999703087,None,4,117517,001,2024-09-19_01h55.58.119,signaldetection,2024.1.5,None,2024-09-19 01h56.02.964394 +0530,
24,0,24,0,47.89144450001186,,47.878545800049324,47.89144450001186,48.8914757000166,48.8914757000166,49.65944800002035,down,0,0.75968020001892,None,0,117517,001,2024-09-19_01h55.58.119,signaldetection,2024.1.5,None,2024-09-19 01h56.02.964394 +0530,
25,0,25,0,49.67453580000438,,49.662903300020844,49.67453580000438,50.67450920003466,50.67450920003466,51.77533480001148,up,1,1.0874207000015303,None,0,117517,001,2024-09-19_01h55.58.119,signaldetection,2024.1.5,None,2024-09-19 01h56.02.964394 +0530,
26,0,26,0,51.790798000001814,,51.77678960002959,51.790798000001814,52.791099500027485,52.791099500027485,53.759402800002135,down,1,0.9578368999646045,None,-2,117517,001,2024-09-19_01h55.58.119,signaldetection,2024.1.5,None,2024-09-19 01h56.02.964394 +0530,
27,0,27,0,53.77412360004382,,53.76241280004615,53.77412360004382,54.77459690003889,54.77459690003889,55.52500940003665,up,1,0.7419188000494614,None,0,117517,001,2024-09-19_01h55.58.119,signaldetection,2024.1.5,None,2024-09-19 01h56.02.964394 +0530,
28,0,28,0,55.540670400019735,,55.52692690002732,55.540670400019735,56.54049730004044,56.54049730004044,58.69274090003455,up,1,2.147495799988974,None,0,117517,001,2024-09-19_01h55.58.119,signaldetection,2024.1.5,None,2024-09-19 01h56.02.964394 +0530,
29,0,29,0,58.70675890002167,,58.69442800001707,58.70675890002167,59.70668130001286,59.70668130001286,60.474585800024215,down,1,0.7597320000058971,None,3,117517,001,2024-09-19_01h55.58.119,signaldetection,2024.1.5,None,2024-09-19 01h56.02.964394 +0530,
30,0,30,0,60.489826200006064,,60.476673000026494,60.489826200006064,61.48944230005145,61.48944230005145,62.59100470005069,down,1,1.0910987999523059,None,-4,117517,001,2024-09-19_01h55.58.119,signaldetection,2024.1.5,None,2024-09-19 01h56.02.964394 +0530,
31,0,31,0,62.60615270002745,,62.593382300052326,62.60615270002745,63.60603010002524,63.60603010002524,64.47447539999848,up,1,0.8598331999965012,None,0,117517,001,2024-09-19_01h55.58.119,signaldetection,2024.1.5,None,2024-09-19 01h56.02.964394 +0530,
32,0,32,0,64.48942900000839,,64.47647150000557,64.48942900000839,65.4895652999985,65.4895652999985,66.27350870001828,down,1,0.7690087000373751,None,2,117517,001,2024-09-19_01h55.58.119,signaldetection,2024.1.5,None,2024-09-19 01h56.02.964394 +0530,
33,0,33,0,66.28878910001367,,66.27599500003271,66.28878910001367,67.2887756000273,67.2887756000273,68.07446910004364,up,1,0.7820451000006869,None,0,117517,001,2024-09-19_01h55.58.119,signaldetection,2024.1.5,None,2024-09-19 01h56.02.964394 +0530,
34,0,34,0,68.08883820002666,,68.07691850000992,68.08883820002666,69.08880270004738,69.08880270004738,69.75701500003925,down,1,0.6554659000248648,None,-2,117517,001,2024-09-19_01h55.58.119,signaldetection,2024.1.5,None,2024-09-19 01h56.02.964394 +0530,
35,0,35,0,69.77214990003267,,69.75833740003873,69.77214990003267,70.77209620003123,70.77209620003123,71.43955730000744,down,1,0.6601181000005454,None,-4,117517,001,2024-09-19_01h55.58.119,signaldetection,2024.1.5,None,2024-09-19 01h56.02.964394 +0530,
36,0,36,0,71.45505650003906,,71.44168730004458,71.45505650003906,72.45509890001267,72.45509890001267,73.50669580005342,up,1,1.0468499999842606,None,0,117517,001,2024-09-19_01h55.58.119,signaldetection,2024.1.5,None,2024-09-19 01h56.02.964394 +0530,
37,0,37,0,73.52153460000409,,73.50862390000839,73.52153460000409,74.52193740004441,74.52193740004441,75.45605110004544,down,1,0.9275438999757171,None,-3,117517,001,2024-09-19_01h55.58.119,signaldetection,2024.1.5,None,2024-09-19 01h56.02.964394 +0530,
38,0,38,0,75.4716643000138,,75.45775960001629,75.4716643000138,76.47125560004497,76.47125560004497,77.25593380001374,up,1,0.7777322999900207,None,0,117517,001,2024-09-19_01h55.58.119,signaldetection,2024.1.5,None,2024-09-19 01h56.02.964394 +0530,
39,0,39,0,77.27131189999636,,77.26144200004637,77.27131189999636,78.27128110005287,78.27128110005287,78.90594010002678,up,1,0.6282754999701865,None,0,117517,001,2024-09-19_01h55.58.119,signaldetection,2024.1.5,None,2024-09-19 01h56.02.964394 +0530,
40,0,40,0,78.92086090001976,,78.90837090002606,78.92086090001976,79.92092010000488,79.92092010000488,80.57143750000978,up,1,0.6364545000251383,None,0,117517,001,2024-09-19_01h55.58.119,signaldetection,2024.1.5,None,2024-09-19 01h56.02.964394 +0530,
41,0,41,0,80.58764959999826,,80.57339570001932,80.58764959999826,81.58724350004923,81.58724350004923,82.70498660003068,up,1,1.105623600014951,None,0,117517,001,2024-09-19_01h55.58.119,signaldetection,2024.1.5,None,2024-09-19 01h56.02.964394 +0530,
42,0,42,0,82.72025350003969,,82.70794069999829,82.72025350003969,83.72013870003866,83.72013870003866,84.3879084000364,up,1,0.6551414999994449,None,0,117517,001,2024-09-19_01h55.58.119,signaldetection,2024.1.5,None,2024-09-19 01h56.02.964394 +0530,
43,0,43,0,84.40341910003917,,84.38919730001362,84.40341910003917,85.40357680001762,85.40357680001762,86.25483900000108,down,1,0.8381521999835968,None,-4,117517,001,2024-09-19_01h55.58.119,signaldetection,2024.1.5,None,2024-09-19 01h56.02.964394 +0530,
44,0,44,0,86.26989769999636,,86.256558699999,86.26989769999636,87.27035010000691,87.27035010000691,88.82222309999634,down,1,1.54764249996515,None,1,117517,001,2024-09-19_01h55.58.119,signaldetection,2024.1.5,None,2024-09-19 01h56.02.964394 +0530,
45,0,45,0,88.836150200048,,88.82384440000169,88.836150200048,89.83641230000649,89.83641230000649,90.55446260003373,up,0,0.7135081000160426,None,-2,117517,001,2024-09-19_01h55.58.119,signaldetection,2024.1.5,None,2024-09-19 01h56.02.964394 +0530,
46,0,46,0,90.56912940001348,,90.55664490000345,90.56912940001348,91.5692062000162,91.5692062000162,92.33750610001152,down,1,0.7632680999813601,None,4,117517,001,2024-09-19_01h55.58.119,signaldetection,2024.1.5,None,2024-09-19 01h56.02.964394 +0530,
47,0,47,0,92.35255520005012,,92.33976450003684,92.35255520005012,93.35216890001902,93.35216890001902,94.48668740002904,up,1,1.124478599987924,None,0,117517,001,2024-09-19_01h55.58.119,signaldetection,2024.1.5,None,2024-09-19 01h56.02.964394 +0530,
48,0,48,0,94.50228050001897,,94.48895090003498,94.50228050001897,95.50250340002822,95.50250340002822,96.35509200004162,up,1,0.8505188000272028,None,0,117517,001,2024-09-19_01h55.58.119,signaldetection,2024.1.5,None,2024-09-19 01h56.02.964394 +0530,
49,0,49,0,96.36871780001093,,96.35754360002466,96.36871780001093,97.36862960003782,97.36862960003782,97.86994960001903,up,1,0.494247600028757,None,0,117517,001,2024-09-19_01h55.58.119,signaldetection,2024.1.5,None,2024-09-19 01h56.02.964394 +0530,
50,0,50,0,97.88496260001557,,97.87277630000608,97.88496260001557,98.88513730000705,98.88513730000705,99.43638270004885,up,1,0.5386383999721147,None,0,117517,001,2024-09-19_01h55.58.119,signaldetection,2024.1.5,None,2024-09-19 01h56.02.964394 +0530,
51,0,51,0,99.45181960001355,,99.43809660000261,99.45181960001355,100.451600600034,100.451600600034,100.98615650000283,up,1,0.5196050000376999,None,0,117517,001,2024-09-19_01h55.58.119,signaldetection,2024.1.5,None,2024-09-19 01h56.02.964394 +0530,
52,0,52,0,101.0015736000496,,100.98848220001673,101.0015736000496,102.00146680005128,102.00146680005128,102.73598930001026,up,1,0.7243371999938972,None,0,117517,001,2024-09-19_01h55.58.119,signaldetection,2024.1.5,None,2024-09-19 01h56.02.964394 +0530,
53,0,53,0,102.75120720005361,,102.73804590001237,102.75120720005361,103.75153320003301,103.75153320003301,104.41935820004437,up,1,0.6526033999980427,None,0,117517,001,2024-09-19_01h55.58.119,signaldetection,2024.1.5,None,2024-09-19 01h56.02.964394 +0530,
54,0,54,0,104.43427570001222,,104.42047110002022,104.43427570001222,105.43427650001831,105.43427650001831,106.18625349999638,down,1,0.745209899963811,None,3,117517,001,2024-09-19_01h55.58.119,signaldetection,2024.1.5,None,2024-09-19 01h56.02.964394 +0530,
55,0,55,0,106.20090210001217,,106.18783080001594,106.20090210001217,107.20064130000537,107.20064130000537,108.26845500001218,up,1,1.0591914999531582,None,0,117517,001,2024-09-19_01h55.58.119,signaldetection,2024.1.5,None,2024-09-19 01h56.02.964394 +0530,
56,0,56,0,108.28385730000446,,108.27027170005022,108.28385730000446,109.28359320003074,109.28359320003074,110.0017723000492,down,1,0.7141018999973312,None,-5,117517,001,2024-09-19_01h55.58.119,signaldetection,2024.1.5,None,2024-09-19 01h56.02.964394 +0530,
57,0,57,0,110.01663130003726,,110.00449130003108,110.01663130003726,111.01683600002434,111.01683600002434,111.83474080002634,up,1,0.8160451999865472,None,0,117517,001,2024-09-19_01h55.58.119,signaldetection,2024.1.5,None,2024-09-19 01h56.02.964394 +0530,
58,0,58,0,111.84967880003387,,111.8370723000262,111.84967880003387,112.8499690000317,112.8499690000317,113.76798230002169,up,1,0.9040060000261292,None,0,117517,001,2024-09-19_01h55.58.119,signaldetection,2024.1.5,None,2024-09-19 01h56.02.964394 +0530,
59,0,59,0,113.78308270004345,,113.77025670005241,113.78308270004345,114.78276810003445,114.78276810003445,115.53408190002665,up,1,0.7480121999979019,None,0,117517,001,2024-09-19_01h55.58.119,signaldetection,2024.1.5,None,2024-09-19 01h56.02.964394 +0530,
60,0,60,0,115.54943960002856,,115.53602719999617,115.54943960002856,116.54948100005277,116.54948100005277,117.25077790004434,down,1,0.6849659999716096,None,-5,117517,001,2024-09-19_01h55.58.119,signaldetection,2024.1.5,None,2024-09-19 01h56.02.964394 +0530,
61,0,61,0,117.26595520001138,,117.25195760000497,117.26595520001138,118.26578980003251,118.26578980003251,118.68436860002112,down,1,0.41586130001815036,None,4,117517,001,2024-09-19_01h55.58.119,signaldetection,2024.1.5,None,2024-09-19 01h56.02.964394 +0530,
62,0,62,0,118.69908849999774,,118.68673280003713,118.69908849999774,119.69953380001243,119.69953380001243,120.5835513000493,down,1,0.8767812000005506,None,-2,117517,001,2024-09-19_01h55.58.119,signaldetection,2024.1.5,None,2024-09-19 01h56.02.964394 +0530,
63,0,63,0,120.59859250002773,,120.58550960000139,120.59859250002773,121.59893600002397,121.59893600002397,122.56717510003364,down,1,0.9618083999957889,None,3,117517,001,2024-09-19_01h55.58.119,signaldetection,2024.1.5,None,2024-09-19 01h56.02.964394 +0530,
64,0,64,0,122.58220620005159,,122.56899749999866,122.58220620005159,123.58192320005037,123.58192320005037,124.46655500005,up,1,0.8709539999836124,None,0,117517,001,2024-09-19_01h55.58.119,signaldetection,2024.1.5,None,2024-09-19 01h56.02.964394 +0530,
65,0,65,0,124.48162170004798,,124.46829030005028,124.48162170004798,125.48185640003067,125.48185640003067,126.73359920002986,up,0,1.2368532000109553,None,-2,117517,001,2024-09-19_01h55.58.119,signaldetection,2024.1.5,None,2024-09-19 01h56.02.964394 +0530,
66,0,66,0,126.74816340004327,,126.73551870003575,126.74816340004327,127.74783250002656,127.74783250002656,128.66591560002416,down,1,0.9063254999928176,None,3,117517,001,2024-09-19_01h55.58.119,signaldetection,2024.1.5,None,2024-09-19 01h56.02.964394 +0530,
67,0,67,0,128.6810065000318,,128.66780049999943,128.6810065000318,129.68091430002823,129.68091430002823,130.89953900000546,up,1,1.2146884999820031,None,0,117517,001,2024-09-19_01h55.58.119,signaldetection,2024.1.5,None,2024-09-19 01h56.02.964394 +0530,
68,0,68,0,130.91396360000363,,130.90138430002844,130.91396360000363,131.91426230000798,131.91426230000798,132.73219280003104,down,1,0.8037002999917604,None,-5,117517,001,2024-09-19_01h55.58.119,signaldetection,2024.1.5,None,2024-09-19 01h56.02.964394 +0530,
69,0,69,0,132.7474554000073,,132.73381050000899,132.7474554000073,133.74733880005078,133.74733880005078,134.31457540002884,down,0,0.5535243999911472,None,0,117517,001,2024-09-19_01h55.58.119,signaldetection,2024.1.5,None,2024-09-19 01h56.02.964394 +0530,
70,0,70,0,134.33005879999837,,134.3162321000127,134.33005879999837,135.33012620004592,135.33012620004592,136.58163369999966,down,1,1.2433904000208713,None,-5,117517,001,2024-09-19_01h55.58.119,signaldetection,2024.1.5,None,2024-09-19 01h56.02.964394 +0530,
71,0,71,0,136.59710140002426,,136.58345960004954,136.59710140002426,137.59639640001114,137.59639640001114,138.49835210002493,up,1,0.892434100038372,None,0,117517,001,2024-09-19_01h55.58.119,signaldetection,2024.1.5,None,2024-09-19 01h56.02.964394 +0530,
72,0,72,0,138.5131922000437,,138.50051130005158,138.5131922000437,139.51344660000177,139.51344660000177,140.98218839999754,down,0,1.466769699996803,None,0,117517,001,2024-09-19_01h55.58.119,signaldetection,2024.1.5,None,2024-09-19 01h56.02.964394 +0530,
73,0,73,0,140.99674620002043,,140.9847490999964,140.99674620002043,141.99673850002,141.99673850002,142.58110460004536,down,1,0.5688284999923781,None,-5,117517,001,2024-09-19_01h55.58.119,signaldetection,2024.1.5,None,2024-09-19 01h56.02.964394 +0530,
74,0,74,0,142.59590430004755,,142.5825834000134,142.59590430004755,143.59729190001963,143.59729190001963,147.180722900026,down,0,3.579420200025197,None,0,117517,001,2024-09-19_01h55.58.119,signaldetection,2024.1.5,None,2024-09-19 01h56.02.964394 +0530,
75,0,75,0,147.19568990002153,,147.18250830000034,147.19568990002153,148.19534040003782,148.19534040003782,149.88772480003536,down,0,1.6489458000287414,None,0,117517,001,2024-09-19_01h55.58.119,signaldetection,2024.1.5,None,2024-09-19 01h56.02.964394 +0530,
76,0,76,0,149.8920252000098,,149.8893994000391,149.8920252000098,150.89529070002027,150.89529070002027,151.5965176000027,down,1,0.6955769999767654,None,4,117517,001,2024-09-19_01h55.58.119,signaldetection,2024.1.5,None,2024-09-19 01h56.02.964394 +0530,
77,0,77,0,151.61173390003387,,151.59918860002654,151.61173390003387,152.6117465000134,152.6117465000134,153.29634550004266,up,1,0.6738216999801807,None,0,117517,001,2024-09-19_01h55.58.119,signaldetection,2024.1.5,None,2024-09-19 01h56.02.964394 +0530,
78,0,78,0,153.31153720000293,,153.29940850002458,153.31153720000293,154.3115383000113,154.3115383000113,155.19594710000092,up,1,0.8784839000436477,None,0,117517,001,2024-09-19_01h55.58.119,signaldetection,2024.1.5,None,2024-09-19 01h56.02.964394 +0530,
79,0,79,0,155.21116270002676,,155.19945529999677,155.21116270002676,156.21118120005121,156.21118120005121,157.12928770005237,down,1,0.9156078999512829,None,2,117517,001,2024-09-19_01h55.58.119,signaldetection,2024.1.5,None,2024-09-19 01h56.02.964394 +0530,
80,0,80,0,157.14421180001227,,157.13159950001864,157.14421180001227,158.14437670004554,158.14437670004554,159.06196280004224,down,0,0.9038556999876164,None,0,117517,001,2024-09-19_01h55.58.119,signaldetection,2024.1.5,None,2024-09-19 01h56.02.964394 +0530,
81,0,81,0,159.0775571000413,,159.064714200038,159.0775571000413,160.07701850001467,160.07701850001467,161.21211970003787,down,0,1.1303855000296608,None,0,117517,001,2024-09-19_01h55.58.119,signaldetection,2024.1.5,None,2024-09-19 01h56.02.964394 +0530,
82,0,82,0,161.22686330002034,,161.2134862000239,161.22686330002034,162.22688700002618,162.22688700002618,162.87861640000483,up,0,0.644378199998755,None,-2,117517,001,2024-09-19_01h55.58.119,signaldetection,2024.1.5,None,2024-09-19 01h56.02.964394 +0530,
83,0,83,0,162.8936125000473,,162.88159950001864,162.8936125000473,163.89327520004008,163.89327520004008,164.56144760001916,up,0,0.6534501000423916,None,3,117517,001,2024-09-19_01h55.58.119,signaldetection,2024.1.5,None,2024-09-19 01h56.02.964394 +0530,
84,0,84,0,164.57643740001367,,164.56365350005217,164.57643740001367,165.57650480000302,165.57650480000302,166.5613383000018,up,0,0.9687373000197113,None,1,117517,001,2024-09-19_01h55.58.119,signaldetection,2024.1.5,None,2024-09-19 01h56.02.964394 +0530,
85,0,85,0,166.57639530004235,,166.5631517000147,166.57639530004235,167.5762909000041,167.5762909000041,168.9269411000423,up,1,1.340602999960538,None,0,117517,001,2024-09-19_01h55.58.119,signaldetection,2024.1.5,None,2024-09-19 01h56.02.964394 +0530,
86,0,86,0,168.9428934000316,,168.93005520000588,168.9428934000316,169.94285750004929,169.94285750004929,170.64467800001148,down,1,0.6969014000496827,None,-2,117517,001,2024-09-19_01h55.58.119,signaldetection,2024.1.5,None,2024-09-19 01h56.02.964394 +0530,
87,0,87,0,170.6591232000501,,170.64781180000864,170.6591232000501,171.6590215000324,171.6590215000324,172.5603469000198,up,1,0.8841941999853589,None,0,117517,001,2024-09-19_01h55.58.119,signaldetection,2024.1.5,None,2024-09-19 01h56.02.964394 +0530,
88,0,88,0,172.57551180000883,,172.56390290003037,172.57551180000883,173.57523509999737,173.57523509999737,174.2342912000022,up,1,0.6390665000071749,None,0,117517,001,2024-09-19_01h55.58.119,signaldetection,2024.1.5,None,2024-09-19 01h56.02.964394 +0530,
89,0,89,0,174.2420010000351,,174.2364693999989,174.2420010000351,175.2422279000166,175.2422279000166,176.0599891000311,down,0,0.8033266999991611,None,0,117517,001,2024-09-19_01h55.58.119,signaldetection,2024.1.5,None,2024-09-19 01h56.02.964394 +0530,
90,0,90,0,176.07497509999666,,176.06180930003757,176.07497509999666,177.07461920002243,177.07461920002243,177.89351429999806,down,1,0.810799999977462,None,-2,117517,001,2024-09-19_01h55.58.119,signaldetection,2024.1.5,None,2024-09-19 01h56.02.964394 +0530,
91,0,91,0,177.90841960004764,,177.89676700002747,177.90841960004764,178.9083408000297,178.9083408000297,179.75937850004993,up,1,0.8390156999812461,None,0,117517,001,2024-09-19_01h55.58.119,signaldetection,2024.1.5,None,2024-09-19 01h56.02.964394 +0530,
92,0,92,0,179.77459360001376,,179.76251730002696,179.77459360001376,180.77456440002425,180.77456440002425,181.1602147000376,up,0,0.3826065000030212,None,2,117517,001,2024-09-19_01h55.58.119,signaldetection,2024.1.5,None,2024-09-19 01h56.02.964394 +0530,
93,0,93,0,181.17433140001958,,181.16261410003062,181.17433140001958,182.1745412000455,182.1745412000455,182.9259311000351,up,1,0.7432772000320256,None,0,117517,001,2024-09-19_01h55.58.119,signaldetection,2024.1.5,None,2024-09-19 01h56.02.964394 +0530,
94,0,94,0,182.94107980001718,,182.92771380004706,182.94107980001718,183.94082890002755,183.94082890002755,184.54310920002172,up,1,0.5967910999897867,None,0,117517,001,2024-09-19_01h55.58.119,signaldetection,2024.1.5,None,2024-09-19 01h56.02.964394 +0530,
95,0,95,0,184.55712870002026,,184.54515740001807,184.55712870002026,185.55765210004756,185.55765210004756,186.05860260000918,up,1,0.48866749997250736,None,0,117517,001,2024-09-19_01h55.58.119,signaldetection,2024.1.5,None,2024-09-19 01h56.02.964394 +0530,
96,0,96,0,186.07368830003543,,186.05994420003844,186.07368830003543,187.07400690001668,187.07400690001668,187.80829740001354,down,1,0.7268959999782965,None,4,117517,001,2024-09-19_01h55.58.119,signaldetection,2024.1.5,None,2024-09-19 01h56.02.964394 +0530,
97,0,97,0,187.8234586000326,,187.80968720000237,187.8234586000326,188.82348530000309,188.82348530000309,189.65780280000763,down,0,0.8176024000276811,None,0,117517,001,2024-09-19_01h55.58.119,signaldetection,2024.1.5,None,2024-09-19 01h56.02.964394 +0530,
98,0,98,0,189.6733412000467,,189.6593555000145,189.6733412000467,190.67324180004653,190.67324180004653,191.7911357000121,up,1,1.110631099960301,None,0,117517,001,2024-09-19_01h55.58.119,signaldetection,2024.1.5,None,2024-09-19 01h56.02.964394 +0530,
99,0,99,0,191.8065281000454,,191.7932966000517,191.8065281000454,192.80610800004797,192.80610800004797,193.6238924000063,up,1,0.8143222000217065,None,0,117517,001,2024-09-19_01h55.58.119,signaldetection,2024.1.5,None,2024-09-19 01h56.02.964394 +0530,
