study_word,thisN,thisTrialN,thisRepN,slider.response,slider.rt,test_word,Reference,old_new,textbox.text,mouse.x,mouse.y,mouse.leftButton,mouse.midButton,mouse.rightButton,mouse.time,mouse.clicked_name,trials.thisRepN,trials.thisTrialN,trials.thisN,trials.thisIndex,trials_2.thisRepN,trials_2.thisTrialN,trials_2.thisN,trials_2.thisIndex,thisRow.t,notes,trial.started,text.started,slider.started,trial.stopped,trials.slider.response,trials.slider.rt,test.started,text_2.started,textbox.started,text_3.started,mouse.started,test.stopped,trials_2.textbox.text,trials_2.mouse.x,trials_2.mouse.y,trials_2.mouse.leftButton,trials_2.mouse.midButton,trials_2.mouse.rightButton,trials_2.mouse.time,trials_2.mouse.clicked_name,text_2.stopped,textbox.stopped,text_3.stopped,mouse.stopped,participant,session,date,expName,psychopyVersion,frameRate,expStart,
Case,0,0,0,1,4.790668500121683,,,,,,,,,,,,0,0,0,10,,,,,0.05757980002090335,,0.019598099868744612,0.05757980002090335,0.05757980002090335,4.826190599938855,1,4.790668500121683,,,,,,,,,,,,,,,,,,,P4_544316,001,2024-11-02_14h46.24.744,word_priming,2024.2.1post4,60.50013036856115,2024-11-02 14h46.41.505201 +0530,
marble,1,1,0,1,3.3616540001239628,,,,,,,,,,,,0,1,1,3,,,,,4.841389799956232,,4.830562199931592,4.841389799956232,4.841389799956232,8.208255699835718,1,3.3616540001239628,,,,,,,,,,,,,,,,,,,P4_544316,001,2024-11-02_14h46.24.744,word_priming,2024.2.1post4,60.50013036856115,2024-11-02 14h46.41.505201 +0530,
Keys,2,2,0,1,2.528655600035563,,,,,,,,,,,,0,2,2,13,,,,,8.22402279987,,8.213008699938655,8.22402279987,8.22402279987,10.757539900019765,1,2.528655600035563,,,,,,,,,,,,,,,,,,,P4_544316,001,2024-11-02_14h46.24.744,word_priming,2024.2.1post4,60.50013036856115,2024-11-02 14h46.41.505201 +0530,
phone,3,3,0,1,1.3640284000430256,,,,,,,,,,,,0,3,3,2,,,,,10.773535799933597,,10.762664299923927,10.773535799933597,10.773535799933597,12.14088899991475,1,1.3640284000430256,,,,,,,,,,,,,,,,,,,P4_544316,001,2024-11-02_14h46.24.744,word_priming,2024.2.1post4,60.50013036856115,2024-11-02 14h46.41.505201 +0530,
Laptop,4,4,0,1,1.8300779999699444,,,,,,,,,,,,0,4,4,5,,,,,12.156528800027445,,12.14481469988823,12.156528800027445,12.156528800027445,13.99067259998992,1,1.8300779999699444,,,,,,,,,,,,,,,,,,,P4_544316,001,2024-11-02_14h46.24.744,word_priming,2024.2.1post4,60.50013036856115,2024-11-02 14h46.41.505201 +0530,
Police,5,5,0,1,1.3295580002013594,,,,,,,,,,,,0,5,5,12,,,,,14.006570999976248,,13.995189500041306,14.006570999976248,14.006570999976248,15.340821599820629,1,1.3295580002013594,,,,,,,,,,,,,,,,,,,P4_544316,001,2024-11-02_14h46.24.744,word_priming,2024.2.1post4,60.50013036856115,2024-11-02 14h46.41.505201 +0530,
board,6,6,0,1,1.9278055999893695,,,,,,,,,,,,0,6,6,4,,,,,15.371772299986333,,15.346425399882719,15.371772299986333,15.371772299986333,17.290327799972147,1,1.9278055999893695,,,,,,,,,,,,,,,,,,,P4_544316,001,2024-11-02_14h46.24.744,word_priming,2024.2.1post4,60.50013036856115,2024-11-02 14h46.41.505201 +0530,
Poster,7,7,0,1.008,1.548505200073123,,,,,,,,,,,,0,7,7,14,,,,,17.306364899966866,,17.292552799917758,17.306364899966866,17.306364899966866,18.856813399819657,1.008,1.548505200073123,,,,,,,,,,,,,,,,,,,P4_544316,001,2024-11-02_14h46.24.744,word_priming,2024.2.1post4,60.50013036856115,2024-11-02 14h46.41.505201 +0530,
Pastry,8,8,0,1.008,1.4818812999874353,,,,,,,,,,,,0,8,8,9,,,,,18.872300299815834,,18.859433999983594,18.872300299815834,18.872300299815834,20.356467299861833,1.008,1.4818812999874353,,,,,,,,,,,,,,,,,,,P4_544316,001,2024-11-02_14h46.24.744,word_priming,2024.2.1post4,60.50013036856115,2024-11-02 14h46.41.505201 +0530,
T-shirt,9,9,0,1.0,1.4629748000297695,,,,,,,,,,,,0,9,9,7,,,,,20.371976899914443,,20.361059800023213,20.371976899914443,20.371976899914443,21.839688299922273,1.0,1.4629748000297695,,,,,,,,,,,,,,,,,,,P4_544316,001,2024-11-02_14h46.24.744,word_priming,2024.2.1post4,60.50013036856115,2024-11-02 14h46.41.505201 +0530,
mouse,10,10,0,1.0,1.4640456999186426,,,,,,,,,,,,0,10,10,8,,,,,21.854859499959275,,21.84244569996372,21.854859499959275,21.854859499959275,23.322944399900734,1.0,1.4640456999186426,,,,,,,,,,,,,,,,,,,P4_544316,001,2024-11-02_14h46.24.744,word_priming,2024.2.1post4,60.50013036856115,2024-11-02 14h46.41.505201 +0530,
book ,11,11,0,1,1.3149373000487685,,,,,,,,,,,,0,11,11,0,,,,,23.337977399816737,,23.326024299953133,23.337977399816737,23.337977399816737,24.655982999829575,1,1.3149373000487685,,,,,,,,,,,,,,,,,,,P4_544316,001,2024-11-02_14h46.24.744,word_priming,2024.2.1post4,60.50013036856115,2024-11-02 14h46.41.505201 +0530,
Chart,12,12,0,1,1.5478867997881025,,,,,,,,,,,,0,12,12,6,,,,,24.671274199848995,,24.658785099862143,24.671274199848995,24.671274199848995,26.222447199979797,1,1.5478867997881025,,,,,,,,,,,,,,,,,,,P4_544316,001,2024-11-02_14h46.24.744,word_priming,2024.2.1post4,60.50013036856115,2024-11-02 14h46.41.505201 +0530,
Cruise,13,13,0,1,1.314467899966985,,,,,,,,,,,,0,13,13,11,,,,,26.237808299949393,,26.225380499847233,26.237808299949393,26.237808299949393,27.555648799985647,1,1.314467899966985,,,,,,,,,,,,,,,,,,,P4_544316,001,2024-11-02_14h46.24.744,word_priming,2024.2.1post4,60.50013036856115,2024-11-02 14h46.41.505201 +0530,
cushion,14,14,0,1,1.2829743998590857,,,,,,,,,,,,0,14,14,1,,,,,27.57107129995711,,27.55780990002677,27.57107129995711,27.57107129995711,28.85560130001977,1,1.2829743998590857,,,,,,,,,,,,,,,,,,,P4_544316,001,2024-11-02_14h46.24.744,word_priming,2024.2.1post4,60.50013036856115,2024-11-02 14h46.41.505201 +0530,
,0,0,0,,,T-_hi_t,T-shirt,old,tshirt,[0.03],[-0.29],[1],[0],[0],[5.906345999799669],['text_3'],,,,,0,0,0,2,28.886791799915954,,,,,,,,28.866436599986628,28.886791799915954,28.886791799915954,28.886791799915954,0.0108258998952806,34.7738067000173,tshirt,[0.03],[-0.29],[1],[0],[0],[5.906345999799669],['text_3'],,,,,P4_544316,001,2024-11-02_14h46.24.744,word_priming,2024.2.1post4,60.50013036856115,2024-11-02 14h46.41.505201 +0530,
,1,1,0,,,_ru_s_,Cruise,old,cruise,[0.01],[-0.298],[1],[0],[0],[6.028136300155893],['text_3'],,,,,0,1,1,6,34.78704319987446,,,,,,,,34.77639649994671,34.78704319987446,34.78704319987446,34.78704319987446,0.0024399999529123306,40.80536719993688,cruise,[0.01],[-0.298],[1],[0],[0],[6.028136300155893],['text_3'],,,,,P4_544316,001,2024-11-02_14h46.24.744,word_priming,2024.2.1post4,60.50013036856115,2024-11-02 14h46.41.505201 +0530,
,2,2,0,,,_ho_e,Phone,old,,[],[],[],[],[],[],[],,,,,0,2,2,12,40.81954890000634,,,,,,,,40.808117899810895,40.81954890000634,40.81954890000634,40.81954890000634,0.002594900084659457,50.81805569981225,,[],[],[],[],[],[],[],,,,,P4_544316,001,2024-11-02_14h46.24.744,word_priming,2024.2.1post4,60.50013036856115,2024-11-02 14h46.41.505201 +0530,
,3,3,0,,,_o_rd,Board,old,board,[0.01],[-0.298],[1],[0],[0],[7.748300499981269],['text_3'],,,,,0,3,3,10,50.83493039989844,,,,,,,,50.82015039981343,50.83493039989844,50.83493039989844,50.83493039989844,0.014625299954786897,58.56895069987513,board,[0.01],[-0.298],[1],[0],[0],[7.748300499981269],['text_3'],,,,,P4_544316,001,2024-11-02_14h46.24.744,word_priming,2024.2.1post4,60.50013036856115,2024-11-02 14h46.41.505201 +0530,
,4,4,0,,,K_y_,Keys,old,keys,[0.01],[-0.298],[1],[0],[0],[2.913126999977976],['text_3'],,,,,0,4,4,8,58.58440679986961,,,,,,,,58.57073489995673,58.58440679986961,58.58440679986961,58.58440679986961,0.0017073999624699354,61.48455729987472,keys,[0.01],[-0.298],[1],[0],[0],[2.913126999977976],['text_3'],,,,,P4_544316,001,2024-11-02_14h46.24.744,word_priming,2024.2.1post4,60.50013036856115,2024-11-02 14h46.41.505201 +0530,
,5,5,0,,,P_li_e,Police,old,police,[0.01],[-0.298],[1],[0],[0],[2.9680739999748766],['text_3'],,,,,0,5,5,7,61.499911200022325,,,,,,,,61.486546699889004,61.499911200022325,61.499911200022325,61.499911200022325,0.0019086000975221395,64.45542040001601,police,[0.01],[-0.298],[1],[0],[0],[2.9680739999748766],['text_3'],,,,,P4_544316,001,2024-11-02_14h46.24.744,word_priming,2024.2.1post4,60.50013036856115,2024-11-02 14h46.41.505201 +0530,
,6,6,0,,,L_pt_p,Laptop,old,laptop,[0.01],[-0.298],[1],[0],[0],[3.058889399981126],['text_3'],,,,,0,6,6,0,64.48204569984227,,,,,,,,64.45808489993215,64.48204569984227,64.48204569984227,64.48204569984227,0.002545399824157357,67.51793239987455,laptop,[0.01],[-0.298],[1],[0],[0],[3.058889399981126],['text_3'],,,,,P4_544316,001,2024-11-02_14h46.24.744,word_priming,2024.2.1post4,60.50013036856115,2024-11-02 14h46.41.505201 +0530,
,7,7,0,,,C_s_io_,Cushion,old,cushion,[0.01],[-0.298],[1],[0],[0],[3.979297500103712],['text_3'],,,,,0,7,7,14,67.53306849999353,,,,,,,,67.52031559986062,67.53306849999353,67.53306849999353,67.53306849999353,0.0022891999687999487,71.50043889996596,cushion,[0.01],[-0.298],[1],[0],[0],[3.979297500103712],['text_3'],,,,,P4_544316,001,2024-11-02_14h46.24.744,word_priming,2024.2.1post4,60.50013036856115,2024-11-02 14h46.41.505201 +0530,
,8,8,0,,,_oo_,Book,old,book,[0.01],[-0.298],[1],[0],[0],[3.5629958000499755],['text_3'],,,,,0,8,8,13,71.51528539997526,,,,,,,,71.50361129990779,71.51528539997526,71.51528539997526,71.51528539997526,0.003041299991309643,75.06733200000599,book,[0.01],[-0.298],[1],[0],[0],[3.5629958000499755],['text_3'],,,,,P4_544316,001,2024-11-02_14h46.24.744,word_priming,2024.2.1post4,60.50013036856115,2024-11-02 14h46.41.505201 +0530,
,9,9,0,,,_ha_t,Chart,old,chart,[0.01],[-0.298],[1],[0],[0],[4.144673899980262],['text_3'],,,,,0,9,9,1,75.08192249992862,,,,,,,,75.07080459990539,75.08192249992862,75.08192249992862,75.08192249992862,0.0032347000669687986,79.21633109985851,chart,[0.01],[-0.298],[1],[0],[0],[4.144673899980262],['text_3'],,,,,P4_544316,001,2024-11-02_14h46.24.744,word_priming,2024.2.1post4,60.50013036856115,2024-11-02 14h46.41.505201 +0530,
,10,10,0,,,_o_se,Mouse,old,mouse,[0.008],[-0.298],[1],[0],[0],[2.9139135000295937],['text_3'],,,,,0,10,10,3,79.23186159995385,,,,,,,,79.2186394999735,79.23186159995385,79.23186159995385,79.23186159995385,0.0021822999697178602,82.1343950999435,mouse,[0.008],[-0.298],[1],[0],[0],[2.9139135000295937],['text_3'],,,,,P4_544316,001,2024-11-02_14h46.24.744,word_priming,2024.2.1post4,60.50013036856115,2024-11-02 14h46.41.505201 +0530,
,11,11,0,,,C_m_ra,Camera ,new,camera,[0.0],[-0.298],[1],[0],[0],[3.9121660999953747],['text_3'],,,,,0,11,11,19,82.14807590004057,,,,,,,,82.13699689996429,82.14807590004057,82.14807590004057,82.14807590004057,0.0025301999412477016,86.05008349986747,camera,[0.0],[-0.298],[1],[0],[0],[3.9121660999953747],['text_3'],,,,,P4_544316,001,2024-11-02_14h46.24.744,word_priming,2024.2.1post4,60.50013036856115,2024-11-02 14h46.41.505201 +0530,
,12,12,0,,,P_nc_l,Pencil,new,pe,[],[],[],[],[],[],[],,,,,0,12,12,16,86.06372380000539,,,,,,,,86.0535386998672,86.06372380000539,86.06372380000539,86.06372380000539,0.0033063001465052366,96.04716730001383,pe,[],[],[],[],[],[],[],96.0626282999292,96.0626282999292,96.0626282999292,9.995923700043932,P4_544316,001,2024-11-02_14h46.24.744,word_priming,2024.2.1post4,60.50013036856115,2024-11-02 14h46.41.505201 +0530,
,13,13,0,,,Bo_t_e,Bottle,new,bottle,[0.056],[-0.3],[1],[0],[0],[8.478606699965894],['text_3'],,,,,0,13,13,18,96.0626282999292,,,,,,,,96.05095339985564,96.0626282999292,96.0626282999292,96.0626282999292,0.0007090999279171228,104.53048299998045,bottle,[0.056],[-0.3],[1],[0],[0],[8.478606699965894],['text_3'],,,,,P4_544316,001,2024-11-02_14h46.24.744,word_priming,2024.2.1post4,60.50013036856115,2024-11-02 14h46.41.505201 +0530,
,14,14,0,,,P_s_ry,Pastry,old,pastry,[0.012],[-0.134],[1],[0],[0],[9.078601300017908],[None],,,,,0,14,14,4,104.54512939997949,,,,,,,,104.5331959000323,104.54512939997949,104.54512939997949,104.54512939997949,0.002598299877718091,114.54361429996789,pastry,[0.012],[-0.134],[1],[0],[0],[9.078601300017908],[None],,,,,P4_544316,001,2024-11-02_14h46.24.744,word_priming,2024.2.1post4,60.50013036856115,2024-11-02 14h46.41.505201 +0530,
,15,15,0,,,V_s_,Vase,new,vase,"[0.012, -0.042]","[-0.134, -0.316]","[1, 1]","[0, 0]","[0, 0]","[0.3463297998532653, 5.028239599894732]","[None, 'text_3']",,,,,0,15,15,17,114.55985859991051,,,,,,,,114.5484235000331,114.55985859991051,114.55985859991051,114.55985859991051,0.017853599973022938,119.57739759981632,vase,"[0.012, -0.042]","[-0.134, -0.316]","[1, 1]","[0, 0]","[0, 0]","[0.3463297998532653, 5.028239599894732]","[None, 'text_3']",,,,,P4_544316,001,2024-11-02_14h46.24.744,word_priming,2024.2.1post4,60.50013036856115,2024-11-02 14h46.41.505201 +0530,
,16,16,0,,,Ta_l_,Table,new,table,[-0.04],[-0.318],[1],[0],[0],[6.412927499972284],['text_3'],,,,,0,16,16,15,119.59269429999404,,,,,,,,119.57943339995109,119.59269429999404,119.59269429999404,119.59269429999404,0.001922300085425377,125.99307079985738,table,[-0.04],[-0.318],[1],[0],[0],[6.412927499972284],['text_3'],,,,,P4_544316,001,2024-11-02_14h46.24.744,word_priming,2024.2.1post4,60.50013036856115,2024-11-02 14h46.41.505201 +0530,
,17,17,0,,,_a_bl_,Marble,old ,,[],[],[],[],[],[],[],,,,,0,17,17,11,126.00866449996829,,,,,,,,125.9958509998396,126.00866449996829,126.00866449996829,126.00866449996829,0.002632400020956993,135.9922994999215,,[],[],[],[],[],[],[],136.00744439987466,136.00744439987466,136.00744439987466,9.997965199872851,P4_544316,001,2024-11-02_14h46.24.744,word_priming,2024.2.1post4,60.50013036856115,2024-11-02 14h46.41.505201 +0530,
,18,18,0,,,C_s_,Case,old,case,[-0.036],[-0.278],[1],[0],[0],[5.0647356999106705],['text_3'],,,,,0,18,18,5,136.00744439987466,,,,,,,,135.99614379997365,136.00744439987466,136.00744439987466,136.00744439987466,0.0029509998857975006,141.0619338999968,case,[-0.036],[-0.278],[1],[0],[0],[5.0647356999106705],['text_3'],,,,,P4_544316,001,2024-11-02_14h46.24.744,word_priming,2024.2.1post4,60.50013036856115,2024-11-02 14h46.41.505201 +0530,
,19,19,0,,,P_st_r,Poster,old,pastor,[],[],[],[],[],[],[],,,,,0,19,19,9,141.07347860001028,,,,,,,,141.06402549985796,141.07347860001028,141.07347860001028,141.07347860001028,0.0019066000822931528,151.07445809990168,pastor,[],[],[],[],[],[],[],,,,,P4_544316,001,2024-11-02_14h46.24.744,word_priming,2024.2.1post4,60.50013036856115,2024-11-02 14h46.41.505201 +0530,
