study_word,thisN,thisTrialN,thisRepN,slider.response,slider.rt,test_word,Reference,old_new,textbox.text,mouse.x,mouse.y,mouse.leftButton,mouse.midButton,mouse.rightButton,mouse.time,mouse.clicked_name,trials.thisRepN,trials.thisTrialN,trials.thisN,trials.thisIndex,trials_2.thisRepN,trials_2.thisTrialN,trials_2.thisN,trials_2.thisIndex,thisRow.t,notes,trial.started,text.started,slider.started,text.stopped,trial.stopped,trials.slider.response,trials.slider.rt,test.started,text_2.started,textbox.started,text_3.started,mouse.started,test.stopped,trials_2.textbox.text,trials_2.mouse.x,trials_2.mouse.y,trials_2.mouse.leftButton,trials_2.mouse.midButton,trials_2.mouse.rightButton,trials_2.mouse.time,trials_2.mouse.clicked_name,participant,session,date,expName,psychopyVersion,frameRate,expStart,
Case,0,0,0,1,14.873931500129402,,,,,,,,,,,,0,0,0,10,,,,,0.05435099988244474,,0.031049299985170364,0.05435099988244474,0.05435099988244474,8.052962000016123,14.920192399993539,1,14.873931500129402,,,,,,,,,,,,,,,P5_054257,001,2024-11-02_14h49.30.893,word_priming,2024.2.1post4,59.79981414939481,2024-11-02 14h49.43.797868 +0530,
Poster,1,1,0,1,2.2282300998922437,,,,,,,,,,,,0,1,1,14,,,,,14.936435899930075,,14.925811300054193,14.936435899930075,14.936435899930075,,17.16976620000787,1,2.2282300998922437,,,,,,,,,,,,,,,P5_054257,001,2024-11-02_14h49.30.893,word_priming,2024.2.1post4,59.79981414939481,2024-11-02 14h49.43.797868 +0530,
cushion,2,2,0,1,1.2621345999650657,,,,,,,,,,,,0,2,2,1,,,,,17.185758400009945,,17.174713399959728,17.185758400009945,17.185758400009945,,18.453439499950036,1,1.2621345999650657,,,,,,,,,,,,,,,P5_054257,001,2024-11-02_14h49.30.893,word_priming,2024.2.1post4,59.79981414939481,2024-11-02 14h49.43.797868 +0530,
marble,3,3,0,1,0.9647919998969883,,,,,,,,,,,,0,3,3,3,,,,,18.46969569986686,,18.45654539996758,18.46969569986686,18.46969569986686,,19.436184499878436,1,0.9647919998969883,,,,,,,,,,,,,,,P5_054257,001,2024-11-02_14h49.30.893,word_priming,2024.2.1post4,59.79981414939481,2024-11-02 14h49.43.797868 +0530,
board,4,4,0,1,1.2304342000279576,,,,,,,,,,,,0,4,4,4,,,,,19.452005099970847,,19.440392799908295,19.452005099970847,19.452005099970847,,20.686457299860194,1,1.2304342000279576,,,,,,,,,,,,,,,P5_054257,001,2024-11-02_14h49.30.893,word_priming,2024.2.1post4,59.79981414939481,2024-11-02 14h49.43.797868 +0530,
Keys,5,5,0,1,0.9947405999992043,,,,,,,,,,,,0,5,5,13,,,,,20.701734999893233,,20.6920364999678,20.701734999893233,20.701734999893233,,21.70265379990451,1,0.9947405999992043,,,,,,,,,,,,,,,P5_054257,001,2024-11-02_14h49.30.893,word_priming,2024.2.1post4,59.79981414939481,2024-11-02 14h49.43.797868 +0530,
mouse,6,6,0,1,1.1989357999991626,,,,,,,,,,,,0,6,6,8,,,,,21.718208899954334,,21.705627399962395,21.718208899954334,21.718208899954334,,22.919611799996346,1,1.1989357999991626,,,,,,,,,,,,,,,P5_054257,001,2024-11-02_14h49.30.893,word_priming,2024.2.1post4,59.79981414939481,2024-11-02 14h49.43.797868 +0530,
phone,7,7,0,1,1.0953796000685543,,,,,,,,,,,,0,7,7,2,,,,,22.935089600039646,,22.92480849986896,22.935089600039646,22.935089600039646,,24.036283599911258,1,1.0953796000685543,,,,,,,,,,,,,,,P5_054257,001,2024-11-02_14h49.30.893,word_priming,2024.2.1post4,59.79981414939481,2024-11-02 14h49.43.797868 +0530,
T-shirt,8,8,0,1,0.8642184999771416,,,,,,,,,,,,0,8,8,7,,,,,24.051929699955508,,24.040715500013903,24.051929699955508,24.051929699955508,,24.919208799954504,1,0.8642184999771416,,,,,,,,,,,,,,,P5_054257,001,2024-11-02_14h49.30.893,word_priming,2024.2.1post4,59.79981414939481,2024-11-02 14h49.43.797868 +0530,
Pastry,9,9,0,1,0.9142855999525636,,,,,,,,,,,,0,9,9,9,,,,,24.934110299916938,,24.921983500011265,24.934110299916938,24.934110299916938,,25.852306599961594,1,0.9142855999525636,,,,,,,,,,,,,,,P5_054257,001,2024-11-02_14h49.30.893,word_priming,2024.2.1post4,59.79981414939481,2024-11-02 14h49.43.797868 +0530,
book ,10,10,0,1,0.9821786000393331,,,,,,,,,,,,0,10,10,0,,,,,25.86795619991608,,25.85503129987046,25.86795619991608,25.86795619991608,,26.85196839994751,1,0.9821786000393331,,,,,,,,,,,,,,,P5_054257,001,2024-11-02_14h49.30.893,word_priming,2024.2.1post4,59.79981414939481,2024-11-02 14h49.43.797868 +0530,
Laptop,11,11,0,1,0.8133972000796348,,,,,,,,,,,,0,11,11,5,,,,,26.867580800084397,,26.856398599920794,26.867580800084397,26.867580800084397,,27.685251799877733,1,0.8133972000796348,,,,,,,,,,,,,,,P5_054257,001,2024-11-02_14h49.30.893,word_priming,2024.2.1post4,59.79981414939481,2024-11-02 14h49.43.797868 +0530,
Police,12,12,0,1,0.8662664999719709,,,,,,,,,,,,0,12,12,12,,,,,27.701438900083303,,27.687873299932107,27.701438900083303,27.701438900083303,,28.56913030007854,1,0.8662664999719709,,,,,,,,,,,,,,,P5_054257,001,2024-11-02_14h49.30.893,word_priming,2024.2.1post4,59.79981414939481,2024-11-02 14h49.43.797868 +0530,
Chart,13,13,0,1,0.9484047000296414,,,,,,,,,,,,0,13,13,6,,,,,28.5844101998955,,28.571059899870306,28.5844101998955,28.5844101998955,,29.535232200054452,1,0.9484047000296414,,,,,,,,,,,,,,,P5_054257,001,2024-11-02_14h49.30.893,word_priming,2024.2.1post4,59.79981414939481,2024-11-02 14h49.43.797868 +0530,
Cruise,14,14,0,1,0.981554500060156,,,,,,,,,,,,0,14,14,11,,,,,29.550364600028843,,29.537368800025433,29.550364600028843,29.550364600028843,,30.53497330006212,1,0.981554500060156,,,,,,,,,,,,,,,P5_054257,001,2024-11-02_14h49.30.893,word_priming,2024.2.1post4,59.79981414939481,2024-11-02 14h49.43.797868 +0530,
,0,0,0,,,P_s_ry,Pastry,old,pastry,[0.05],[-0.306],[1],[0],[0],[6.655049700057134],['text_3'],,,,,0,0,0,4,30.566386400023475,,,,,,,,,30.545577900018543,30.566386400023475,30.566386400023475,30.566386400023475,0.010591999860480428,37.20115219987929,pastry,[0.05],[-0.306],[1],[0],[0],[6.655049700057134],['text_3'],P5_054257,001,2024-11-02_14h49.30.893,word_priming,2024.2.1post4,59.79981414939481,2024-11-02 14h49.43.797868 +0530,
,1,1,0,,,C_s_,Case,old,case,"[0.378, 0.032]","[-0.058, -0.288]","[1, 1]","[0, 0]","[0, 0]","[4.963866699952632, 7.564701299881563]","[None, 'text_3']",,,,,0,1,1,5,37.21674919989891,,,,,,,,,37.20313549996354,37.21674919989891,37.21674919989891,37.21674919989891,0.001846899976953864,44.768717400031164,case,"[0.378, 0.032]","[-0.058, -0.288]","[1, 1]","[0, 0]","[0, 0]","[4.963866699952632, 7.564701299881563]","[None, 'text_3']",P5_054257,001,2024-11-02_14h49.30.893,word_priming,2024.2.1post4,59.79981414939481,2024-11-02 14h49.43.797868 +0530,
,2,2,0,,,Ta_l_,Table,new,,[],[],[],[],[],[],[],,,,,0,2,2,15,44.78212199988775,,,,,,,,,44.771573500009254,44.78212199988775,44.78212199988775,44.78212199988775,0.0026833999436348677,54.78100459999405,,[],[],[],[],[],[],[],P5_054257,001,2024-11-02_14h49.30.893,word_priming,2024.2.1post4,59.79981414939481,2024-11-02 14h49.43.797868 +0530,
,3,3,0,,,_o_se,Mouse,old,mouse,"[0.062, 0.052]","[-0.02, -0.318]","[1, 1]","[0, 0]","[0, 0]","[3.531500300159678, 4.2830916999373585]","[None, 'text_3']",,,,,0,3,3,3,54.7972534999717,,,,,,,,,54.78304739994928,54.7972534999717,54.7972534999717,54.7972534999717,0.01415059994906187,59.06708319997415,mouse,"[0.062, 0.052]","[-0.02, -0.318]","[1, 1]","[0, 0]","[0, 0]","[3.531500300159678, 4.2830916999373585]","[None, 'text_3']",P5_054257,001,2024-11-02_14h49.30.893,word_priming,2024.2.1post4,59.79981414939481,2024-11-02 14h49.43.797868 +0530,
,4,4,0,,,C_s_io_,Cushion,old,,[],[],[],[],[],[],[],,,,,0,4,4,14,59.08039649995044,,,,,,,,,59.07063400000334,59.08039649995044,59.08039649995044,59.08039649995044,0.0033482001163065434,69.07915950007737,,[],[],[],[],[],[],[],P5_054257,001,2024-11-02_14h49.30.893,word_priming,2024.2.1post4,59.79981414939481,2024-11-02 14h49.43.797868 +0530,
,5,5,0,,,T-_hi_t,T-shirt,old,t shirt,[0.066],[-0.316],[1],[0],[0],[5.64662680006586],['text_3'],,,,,0,5,5,2,69.09570299996994,,,,,,,,,69.08226369996555,69.09570299996994,69.09570299996994,69.09570299996994,0.014986300142481923,74.7295152998995,t shirt,[0.066],[-0.316],[1],[0],[0],[5.64662680006586],['text_3'],P5_054257,001,2024-11-02_14h49.30.893,word_priming,2024.2.1post4,59.79981414939481,2024-11-02 14h49.43.797868 +0530,
,6,6,0,,,Bo_t_e,Bottle,new,bottle,[0.07],[-0.306],[1],[0],[0],[8.544482399942353],['text_3'],,,,,0,6,6,18,74.74493140005507,,,,,,,,,74.7329384998884,74.74493140005507,74.74493140005507,74.74493140005507,0.0033332998864352703,83.27798469993286,bottle,[0.07],[-0.306],[1],[0],[0],[8.544482399942353],['text_3'],P5_054257,001,2024-11-02_14h49.30.893,word_priming,2024.2.1post4,59.79981414939481,2024-11-02 14h49.43.797868 +0530,
,7,7,0,,,L_pt_p,Laptop,old,laptop,"[0.076, 0.078]","[-0.334, -0.284]","[1, 1]","[0, 0]","[0, 0]","[2.980105899972841, 3.917097399942577]","[None, 'text_3']",,,,,0,7,7,0,83.29329719999805,,,,,,,,,83.28028779989108,83.29329719999805,83.29329719999805,83.29329719999805,0.0021866001188755035,87.19839289993979,laptop,"[0.076, 0.078]","[-0.334, -0.284]","[1, 1]","[0, 0]","[0, 0]","[2.980105899972841, 3.917097399942577]","[None, 'text_3']",P5_054257,001,2024-11-02_14h49.30.893,word_priming,2024.2.1post4,59.79981414939481,2024-11-02 14h49.43.797868 +0530,
,8,8,0,,,V_s_,Vase,new,vase,[0.082],[-0.286],[1],[0],[0],[4.223158800043166],['text_3'],,,,,0,8,8,17,87.22600989998318,,,,,,,,,87.2034452999942,87.22600989998318,87.22600989998318,87.22600989998318,0.004917799960821867,91.4272366000805,vase,[0.082],[-0.286],[1],[0],[0],[4.223158800043166],['text_3'],P5_054257,001,2024-11-02_14h49.30.893,word_priming,2024.2.1post4,59.79981414939481,2024-11-02 14h49.43.797868 +0530,
,9,9,0,,,P_li_e,Police,old,police,[0.084],[-0.284],[1],[0],[0],[5.46322529995814],['text_3'],,,,,0,9,9,7,91.44327459996566,,,,,,,,,91.42922769999132,91.44327459996566,91.44327459996566,91.44327459996566,0.0019162001553922892,96.89328030007891,police,[0.084],[-0.284],[1],[0],[0],[5.46322529995814],['text_3'],P5_054257,001,2024-11-02_14h49.30.893,word_priming,2024.2.1post4,59.79981414939481,2024-11-02 14h49.43.797868 +0530,
,10,10,0,,,P_st_r,Poster,old,pastry,[0.084],[-0.302],[1],[0],[0],[4.847382199950516],['text_3'],,,,,0,10,10,9,96.90915259998292,,,,,,,,,96.89546420006081,96.90915259998292,96.90915259998292,96.90915259998292,0.0021011000499129295,101.74371399986558,pastry,[0.084],[-0.302],[1],[0],[0],[4.847382199950516],['text_3'],P5_054257,001,2024-11-02_14h49.30.893,word_priming,2024.2.1post4,59.79981414939481,2024-11-02 14h49.43.797868 +0530,
,11,11,0,,,_ha_t,Chart,old,chart,[0.076],[-0.294],[1],[0],[0],[4.104188299970701],['text_3'],,,,,0,11,11,1,101.75834179995582,,,,,,,,,101.74557180004194,101.75834179995582,101.75834179995582,101.75834179995582,0.0017841998487710953,105.85053359996527,chart,[0.076],[-0.294],[1],[0],[0],[4.104188299970701],['text_3'],P5_054257,001,2024-11-02_14h49.30.893,word_priming,2024.2.1post4,59.79981414939481,2024-11-02 14h49.43.797868 +0530,
,12,12,0,,,K_y_,Keys,old,keys,[0.058],[-0.312],[1],[0],[0],[3.289199999999255],['text_3'],,,,,0,12,12,8,105.87392539996654,,,,,,,,,105.85234860004857,105.87392539996654,105.87392539996654,105.87392539996654,0.001742699882015586,109.14214299991727,keys,[0.058],[-0.312],[1],[0],[0],[3.289199999999255],['text_3'],P5_054257,001,2024-11-02_14h49.30.893,word_priming,2024.2.1post4,59.79981414939481,2024-11-02 14h49.43.797868 +0530,
,13,13,0,,,_oo_,Book,old,boo,[-0.05],[-0.03],[1],[0],[0],[6.552708599949256],[None],,,,,0,13,13,13,109.15729329991154,,,,,,,,,109.14425059990026,109.15729329991154,109.15729329991154,109.15729329991154,0.0020129000768065453,119.15621059993282,boo,[-0.05],[-0.03],[1],[0],[0],[6.552708599949256],[None],P5_054257,001,2024-11-02_14h49.30.893,word_priming,2024.2.1post4,59.79981414939481,2024-11-02 14h49.43.797868 +0530,
,14,14,0,,,_a_bl_,Marble,old ,,[],[],[],[],[],[],[],,,,,0,14,14,11,119.17201370000839,,,,,,,,,119.1594841000624,119.17201370000839,119.17201370000839,119.17201370000839,0.01726950006559491,129.15485380007885,,[],[],[],[],[],[],[],P5_054257,001,2024-11-02_14h49.30.893,word_priming,2024.2.1post4,59.79981414939481,2024-11-02 14h49.43.797868 +0530,
,15,15,0,,,C_m_ra,Camera ,new,camera,[],[],[],[],[],[],[],,,,,0,15,15,19,129.1718265998643,,,,,,,,,129.15796389989555,129.1718265998643,129.1718265998643,129.1718265998643,0.015745099866762757,139.15410259994678,camera,[],[],[],[],[],[],[],P5_054257,001,2024-11-02_14h49.30.893,word_priming,2024.2.1post4,59.79981414939481,2024-11-02 14h49.43.797868 +0530,
,16,16,0,,,P_nc_l,Pencil,new,pencil,[],[],[],[],[],[],[],,,,,0,16,16,16,139.1709070999641,,,,,,,,,139.15618639998138,139.1709070999641,139.1709070999641,139.1709070999641,0.013952600071206689,149.1531171000097,pencil,[],[],[],[],[],[],[],P5_054257,001,2024-11-02_14h49.30.893,word_priming,2024.2.1post4,59.79981414939481,2024-11-02 14h49.43.797868 +0530,
,17,17,0,,,_ru_s_,Cruise,old,cruise,"[0.052, 0.066]","[-0.15, -0.294]","[1, 1]","[0, 0]","[0, 0]","[4.530649299966171, 5.0506863000337034]","[None, 'text_3']",,,,,0,17,17,6,149.16812309995294,,,,,,,,,149.15602890006267,149.16812309995294,149.16812309995294,149.16812309995294,0.013808599906042218,154.2076526999008,cruise,"[0.052, 0.066]","[-0.15, -0.294]","[1, 1]","[0, 0]","[0, 0]","[4.530649299966171, 5.0506863000337034]","[None, 'text_3']",P5_054257,001,2024-11-02_14h49.30.893,word_priming,2024.2.1post4,59.79981414939481,2024-11-02 14h49.43.797868 +0530,
,18,18,0,,,_o_rd,Board,old,board,[0.068],[-0.302],[1],[0],[0],[7.942272499902174],['text_3'],,,,,0,18,18,10,154.2341010000091,,,,,,,,,154.20971139986068,154.2341010000091,154.2341010000091,154.2341010000091,0.0019198001828044653,162.15286829997785,board,[0.068],[-0.302],[1],[0],[0],[7.942272499902174],['text_3'],P5_054257,001,2024-11-02_14h49.30.893,word_priming,2024.2.1post4,59.79981414939481,2024-11-02 14h49.43.797868 +0530,
,19,19,0,,,_ho_e,Phone,old,,[],[],[],[],[],[],[],,,,,0,19,19,12,162.16742839990184,,,,,,,,,162.15471579995938,162.16742839990184,162.16742839990184,162.16742839990184,0.0017517998348921537,172.1659480999224,,[],[],[],[],[],[],[],P5_054257,001,2024-11-02_14h49.30.893,word_priming,2024.2.1post4,59.79981414939481,2024-11-02 14h49.43.797868 +0530,
