delay,freq,condition,thisN,thisTrialN,thisRepN,key_resp.keys,key_resp.rt,key_resp.duration,textbox.text,button.numClicks,button.timesOn,button.timesOff,trials.thisRepN,trials.thisTrialN,trials.thisN,trials.thisIndex,thisRow.t,notes,trial.started,polygon.started,polygon_2.started,key_resp.started,polygon.stopped,trial.stopped,trials.key_resp.keys,trials.key_resp.rt,trials.key_resp.duration,beep.started,sound_1.started,sound_1.stopped,beep.stopped,response.started,text.started,textbox.started,button.started,response.stopped,trials.textbox.text,trials.button.numClicks,trials.button.timesOn,trials.button.timesOff,participant,session,date,expName,psychopyVersion,frameRate,expStart,
0.4,400,unexp,0,0,0,space,0.9291579000419006,None,200,1,[7.950899200048298],[7.9509067999897525],0,0,0,1,0.0513389001134783,,0.04509690008126199,0.0513389001134783,1.0014423000393435,1.0014423000393435,1.0516428000992164,2.043188900104724,space,0.9291579000419006,None,2.0439383001066744,2.451421566718879,2.7674933000234887,2.7512345000868663,2.7518855000380427,2.7674933000234887,2.7674933000234887,2.7674933000234887,10.719013300025836,200,1,[7.950899200048298],[7.9509067999897525],588890,001,2024-11-14_16h55.29.050,intentional_binding,2024.2.1post4,60.326147265876486,2024-11-14 16h56.07.176880 +0530,
0.1,1000,exp,1,1,0,space,2.058636700036004,None,100,1,[3.4179344000294805],[3.417941299965605],0,1,1,9,10.733423600089736,,10.71920700010378,10.733423600089736,11.734798500081524,11.734798500081524,11.734798500081524,13.802227400010452,space,2.058636700036004,None,13.80278700008057,13.916723366772446,14.232981100096367,14.217583700083196,14.218208500067703,14.232981100096367,14.232981100096367,14.232981100096367,17.6515513000777,100,1,[3.4179344000294805],[3.417941299965605],588890,001,2024-11-14_16h55.29.050,intentional_binding,2024.2.1post4,60.326147265876486,2024-11-14 16h56.07.176880 +0530,
0.1,1000,exp,2,2,0,space,0.9901239998871461,None,50,1,[14.434035099926405],[14.434041099972092],0,2,2,6,17.66634930006694,,17.65175520000048,17.66634930006694,18.667250900063664,18.667250900063664,18.667250900063664,19.667205900070257,space,0.9901239998871461,None,19.667793500004336,19.766896466670246,20.081893000053242,20.05757230008021,20.057988100103103,20.081893000053242,20.081893000053242,20.081893000053242,34.51646630000323,50,1,[14.434035099926405],[14.434041099972092],588890,001,2024-11-14_16h55.29.050,intentional_binding,2024.2.1post4,60.326147265876486,2024-11-14 16h56.07.176880 +0530,
0.7,1000,exp,3,3,0,space,0.9306801999919116,None,300,1,[2.700990300043486],[2.700995899969712],0,3,3,8,34.530543800094165,,34.51662980008405,34.530543800094165,35.53074350010138,35.53074350010138,35.53074350010138,36.464890300063416,space,0.9306801999919116,None,36.4653299000347,37.180550066699894,37.496488200034946,37.47968630003743,37.48038590000942,37.496488200034946,37.496488200034946,37.496488200034946,40.198063200106844,300,1,[2.700990300043486],[2.700995899969712],588890,001,2024-11-14_16h55.29.050,intentional_binding,2024.2.1post4,60.326147265876486,2024-11-14 16h56.07.176880 +0530,
0.7,400,unexp,4,4,0,space,0.8832233999855816,None,450,1,[3.3009023999329656],[3.3009081999771297],0,4,4,2,40.21374170004856,,40.19823110010475,40.21374170004856,41.21363250003196,41.21363250003196,41.21363250003196,42.09840990009252,space,0.8832233999855816,None,42.09892050002236,42.813947166727544,43.12895420007408,43.11524960002862,43.11569930007681,43.12895420007408,43.12895420007408,43.12895420007408,46.430407500010915,450,1,[3.3009023999329656],[3.3009081999771297],588890,001,2024-11-14_16h55.29.050,intentional_binding,2024.2.1post4,60.326147265876486,2024-11-14 16h56.07.176880 +0530,
0.4,1000,exp,5,5,0,space,0.9671882000984624,None,200,1,[3.3012555999448523],[3.301259999978356],0,5,5,4,46.44623990007676,,46.43058830010705,46.44623990007676,47.42907680000644,47.42907680000644,47.44635580002796,48.413545400020666,space,0.9671882000984624,None,48.4142343000276,48.81322846672653,49.128212700015865,49.1038018000545,49.10463549999986,49.128212700015865,49.128212700015865,49.128212700015865,52.43007740005851,200,1,[3.3012555999448523],[3.301259999978356],588890,001,2024-11-14_16h55.29.050,intentional_binding,2024.2.1post4,60.326147265876486,2024-11-14 16h56.07.176880 +0530,
0.1,400,unexp,6,6,0,space,0.6127139000454918,None,100,1,[2.6503726999508217],[2.6503793000010774],0,6,6,0,52.44608700007666,,52.430381300044246,52.44608700007666,53.42978680005763,53.42978680005763,53.44639640010428,54.04825890006032,space,0.6127139000454918,None,54.049232300021686,54.16139636672257,54.477563800057396,54.45823800005019,54.45975590008311,54.477563800057396,54.477563800057396,54.477563800057396,57.12847670004703,100,1,[2.6503726999508217],[2.6503793000010774],588890,001,2024-11-14_16h55.29.050,intentional_binding,2024.2.1post4,60.326147265876486,2024-11-14 16h56.07.176880 +0530,
0.1,1000,exp,7,7,0,space,0.37610710004810244,None,50,1,[2.9831913999514654],[2.983197499997914],0,7,7,3,57.14424360007979,,57.128723600064404,57.14424360007979,58.12871830002405,58.12871830002405,58.14562360011041,58.51253680000082,space,0.37610710004810244,None,58.51313940004911,58.6121420667662,58.943906800006516,58.92301650007721,58.92360300000291,58.943906800006516,58.943906800006516,58.943906800006516,61.92778990010265,50,1,[2.9831913999514654],[2.983197499997914],588890,001,2024-11-14_16h55.29.050,intentional_binding,2024.2.1post4,60.326147265876486,2024-11-14 16h56.07.176880 +0530,
0.4,1000,exp,8,8,0,space,0.01040659996215254,None,40,1,[6.900002299924381],[6.900009499979205],0,8,8,7,61.9442044000607,,61.928058800054714,61.9442044000607,62.92835260007996,62.92835260007996,62.94530930009205,62.9471901000943,space,0.01040659996215254,None,62.948077400098555,63.360846366678985,63.643320800038055,63.628259400022216,63.628623100114055,63.643320800038055,63.643320800038055,63.643320800038055,70.54391940007918,40,1,[6.900002299924381],[6.900009499979205],588890,001,2024-11-14_16h55.29.050,intentional_binding,2024.2.1post4,60.326147265876486,2024-11-14 16h56.07.176880 +0530,
0.7,1000,exp,9,9,0,space,0.430468300008215,None,350,1,[3.317306899931282],[3.3173148999921978],0,9,9,5,70.55942200007848,,70.5441183000803,70.55942200007848,71.54348810005467,71.54348810005467,71.56130170007236,71.97775400010869,space,0.430468300008215,None,71.9786926000379,72.67705756676538,72.99251700006425,72.96824890002608,72.96869280003011,72.99251700006425,72.99251700006425,72.99251700006425,76.31049250008073,350,1,[3.317306899931282],[3.3173148999921978],588890,001,2024-11-14_16h55.29.050,intentional_binding,2024.2.1post4,60.326147265876486,2024-11-14 16h56.07.176880 +0530,
0.7,1000,exp,10,10,0,space,2.578303199959919,None,500,1,[2.616014900035225],[2.6160212999675423],0,10,10,11,76.32555990002584,,76.31073780008592,76.32555990002584,77.3260024000192,77.3260024000192,77.3260024000192,79.91033900005277,space,2.578303199959919,None,79.91104080004152,80.62572226667932,80.94232260005083,80.92593350005336,80.92633400007617,80.94232260005083,80.94232260005083,80.94232260005083,83.55904980003834,500,1,[2.616014900035225],[2.6160212999675423],588890,001,2024-11-14_16h55.29.050,intentional_binding,2024.2.1post4,60.326147265876486,2024-11-14 16h56.07.176880 +0530,
0.4,1000,exp,11,11,0,space,0.9513806999893859,None,250,1,[4.067579900030978],[4.0675849000690505],0,11,11,10,83.57439280010294,,83.55923340003937,83.57439280010294,84.55861360009294,84.55861360009294,84.57520130008925,85.52515060000587,space,0.9513806999893859,None,85.52569020004012,85.92497856676734,86.2402168000117,86.22866490005981,86.22927980008535,86.2402168000117,86.2402168000117,86.2402168000117,90.30830640008207,250,1,[4.067579900030978],[4.0675849000690505],588890,001,2024-11-14_16h55.29.050,intentional_binding,2024.2.1post4,60.326147265876486,2024-11-14 16h56.07.176880 +0530,
0.1,1000,exp,12,0,1,space,1.7424647000152618,None,300,1,[6.233251700061373],[6.2332577999914065],1,0,12,6,90.32345070003066,,90.3084727000678,90.32345070003066,91.30821350007318,91.30821350007318,91.32405880000442,93.058182900073,space,1.7424647000152618,None,93.05873030005023,93.15758406668125,93.47292550001293,93.45765770005528,93.4580905000912,93.47292550001293,93.47292550001293,93.47292550001293,99.706765800016,300,1,[6.233251700061373],[6.2332577999914065],588890,001,2024-11-14_16h55.29.050,intentional_binding,2024.2.1post4,60.326147265876486,2024-11-14 16h56.07.176880 +0530,
0.4,1000,exp,13,1,1,space,1.4845437000039965,None,150,1,[4.21659590001218],[4.216606699978001],1,1,13,10,99.72246150008868,,99.7069622001145,99.72246150008868,100.70612600003369,100.70612600003369,100.72288250003476,102.20632330002263,space,1.4845437000039965,None,102.20692410005722,102.6054376667055,102.90580070007127,102.88950390007813,102.8899174000835,102.90580070007127,102.90580070007127,102.90580070007127,107.12330850004219,150,1,[4.21659590001218],[4.216606699978001],588890,001,2024-11-14_16h55.29.050,intentional_binding,2024.2.1post4,60.326147265876486,2024-11-14 16h56.07.176880 +0530,
0.4,400,unexp,14,2,1,space,2.884817300015129,None,600,1,[3.1009939999785274],[3.10100040002726],1,2,14,1,107.13865390000865,,107.1235532000428,107.13865390000865,108.13884670007974,108.13884670007974,108.13884670007974,111.04089780000504,space,2.884817300015129,None,111.0420516000595,111.45597246667991,111.77031580009498,111.74813650001306,111.74894990003668,111.77031580009498,111.77031580009498,111.77031580009498,114.8718609000789,600,1,[3.1009939999785274],[3.10100040002726],588890,001,2024-11-14_16h55.29.050,intentional_binding,2024.2.1post4,60.326147265876486,2024-11-14 16h56.07.176880 +0530,
0.4,1000,exp,15,3,1,space,2.3180098000448197,None,800,1,[4.100607199943624],[4.100614199996926],1,3,15,4,114.88725570007227,,114.87201880000066,114.88725570007227,115.8710102000041,115.8710102000041,115.88859550002962,118.20507430005819,space,2.3180098000448197,None,118.20589340000879,118.62097036670117,118.93580920004752,118.9181354000466,118.91884980001487,118.93580920004752,118.93580920004752,118.93580920004752,123.03704430011567,800,1,[4.100607199943624],[4.100614199996926],588890,001,2024-11-14_16h55.29.050,intentional_binding,2024.2.1post4,60.326147265876486,2024-11-14 16h56.07.176880 +0530,
0.7,400,unexp,16,4,1,space,0.4034949999768287,None,650,1,[3.401336899958551],[3.401342299999669],1,4,16,2,123.05287080002017,,123.0372359000612,123.05287080002017,124.03727810003329,124.03727810003329,124.0528516001068,124.45408630010206,space,0.4034949999768287,None,124.45459269999992,125.1539793667073,125.46868840011302,125.44784160004929,125.4484721000772,125.46868840011302,125.46868840011302,125.46868840011302,128.8708076000912,650,1,[3.401336899958551],[3.401342299999669],588890,001,2024-11-14_16h55.29.050,intentional_binding,2024.2.1post4,60.326147265876486,2024-11-14 16h56.07.176880 +0530,
0.4,1000,exp,17,5,1,space,1.0285862000891939,None,800,1,[3.600554700009525],[3.600563000072725],1,5,17,7,128.88503220002167,,128.87097670009825,128.88503220002167,129.8854849000927,129.8854849000927,129.8854849000927,130.91975460003596,space,1.0285862000891939,None,130.92044310003985,131.3188884667509,131.63440720003564,131.61836590000894,131.61923530010972,131.63440720003564,131.63440720003564,131.63440720003564,135.23563440004364,800,1,[3.600554700009525],[3.600563000072725],588890,001,2024-11-14_16h55.29.050,intentional_binding,2024.2.1post4,60.326147265876486,2024-11-14 16h56.07.176880 +0530,
0.7,1000,exp,18,6,1,space,None,None,650,1,[3.450172599987127],[3.450178400031291],1,6,18,8,135.25185660005081,,135.2359222000232,135.25185660005081,136.25123230007011,136.25123230007011,136.26778110000305,136.41886050009634,space,None,None,136.41930400009733,137.13396626670536,137.4508925001137,137.42593490006402,137.42638300010003,137.4508925001137,137.4508925001137,137.4508925001137,140.90157320001163,650,1,[3.450172599987127],[3.450178400031291],588890,001,2024-11-14_16h55.29.050,intentional_binding,2024.2.1post4,60.326147265876486,2024-11-14 16h56.07.176880 +0530,
0.1,1000,exp,19,7,1,space,2.4505566000007093,None,200,1,[2.733870600000955],[2.733877799939364],1,7,19,3,140.91671490005683,,140.90173460007645,140.91671490005683,141.90084570006002,141.90084570006002,141.91716790001374,144.352723200107,space,2.4505566000007093,None,144.3534908000147,144.46808206668746,144.78272570006084,144.7682583000278,144.76875990000553,144.78272570006084,144.78272570006084,144.78272570006084,147.51710280007683,200,1,[2.733870600000955],[2.733877799939364],588890,001,2024-11-14_16h55.29.050,intentional_binding,2024.2.1post4,60.326147265876486,2024-11-14 16h56.07.176880 +0530,
0.1,400,unexp,20,8,1,space,0.5961007999721915,None,100,1,[4.550681699998677],[4.550687500042841],1,8,20,0,147.53272640006617,,147.5172943000216,147.53272640006617,148.51694430003408,148.51694430003408,148.5336357000051,149.11782670009416,space,0.5961007999721915,None,149.11882920004427,149.21741196670726,149.5321442000568,149.51773400011007,149.5182570000179,149.5321442000568,149.5321442000568,149.5321442000568,154.0833720000228,100,1,[4.550681699998677],[4.550687500042841],588890,001,2024-11-14_16h55.29.050,intentional_binding,2024.2.1post4,60.326147265876486,2024-11-14 16h56.07.176880 +0530,
0.7,1000,exp,21,9,1,space,0.9650937999831513,None,600,1,[5.184120199992321],[5.184126200038008],1,9,21,5,154.09915860008914,,154.0835407000268,154.09915860008914,155.0828082000371,155.0828082000371,155.10100890009198,156.05133610009216,space,0.9650937999831513,None,156.05213430000003,156.7658296666962,157.08105840010103,157.06657570006792,157.06724760006182,157.08105840010103,157.08105840010103,157.08105840010103,162.26572070003022,600,1,[5.184120199992321],[5.184126200038008],588890,001,2024-11-14_16h55.29.050,intentional_binding,2024.2.1post4,60.326147265876486,2024-11-14 16h56.07.176880 +0530,
0.7,1000,exp,22,10,1,space,1.1755023000296205,None,500,1,[3.1334536999929696],[3.133460000040941],1,10,22,11,162.28100520011503,,162.26593480003066,162.28100520011503,163.26508230005857,163.26508230005857,163.28172280010767,164.44956760003697,space,1.1755023000296205,None,164.45026330009568,165.16542506678186,165.48012580000795,165.46263960003853,165.46431350009516,165.48012580000795,165.48012580000795,165.48012580000795,168.61414600000717,500,1,[3.1334536999929696],[3.133460000040941],588890,001,2024-11-14_16h55.29.050,intentional_binding,2024.2.1post4,60.326147265876486,2024-11-14 16h56.07.176880 +0530,
0.1,1000,exp,23,11,1,space,0.4002484999364242,None,150,1,[2.702063399949111],[2.7020702000008896],1,11,23,9,168.63006990007125,,168.61434420000296,168.63006990007125,169.6148189000087,169.6148189000087,169.6314669001149,170.03141350008082,space,0.4002484999364242,None,170.03217400005087,170.14730906667344,170.46243510011118,170.4487683000043,170.44945280009415,170.46243510011118,170.46243510011118,170.46243510011118,173.1652630000608,150,1,[2.702063399949111],[2.7020702000008896],588890,001,2024-11-14_16h55.29.050,intentional_binding,2024.2.1post4,60.326147265876486,2024-11-14 16h56.07.176880 +0530,
0.1,1000,exp,24,0,2,space,0.39003809995483607,None,300,1,[3.5337539000902325],[3.5337607000255957],2,0,24,3,173.1798042000737,,173.16547660005745,173.1798042000737,174.1636002000887,174.1636002000887,174.18028380000032,174.56422860000748,space,0.39003809995483607,None,174.56491040007677,174.6802807667448,174.9954250000883,174.97811680007726,174.9788300000364,174.9954250000883,174.9954250000883,174.9954250000883,178.5296881000977,300,1,[3.5337539000902325],[3.5337607000255957],588890,001,2024-11-14_16h55.29.050,intentional_binding,2024.2.1post4,60.326147265876486,2024-11-14 16h56.07.176880 +0530,
0.4,400,unexp,25,1,2,space,0.82268669991754,None,500,1,[1.750971099943854],[1.7509771999903023],2,1,25,1,178.5456559000304,,178.52987600001507,178.5456559000304,179.52988090005238,179.52988090005238,179.54648490005638,180.36543640005402,space,0.82268669991754,None,180.36625190009363,180.77855346672393,181.0947777000256,181.0780986000318,181.07873340009246,181.0947777000256,181.0947777000256,181.0947777000256,182.84624330000952,500,1,[1.750971099943854],[1.7509771999903023],588890,001,2024-11-14_16h55.29.050,intentional_binding,2024.2.1post4,60.326147265876486,2024-11-14 16h56.07.176880 +0530,
0.1,1000,exp,26,2,2,space,0.7010154000017792,None,250,1,[3.4347015999956056],[3.434707000036724],2,2,26,9,182.86150270001963,,182.84640580008272,182.86150270001963,183.84618870005943,183.84618870005943,183.8619180000387,184.56244300003164,space,0.7010154000017792,None,184.56293670006562,184.66254356672678,184.9773454000242,184.95767660008278,184.95847250008956,184.9773454000242,184.9773454000242,184.9773454000242,188.41251630010083,250,1,[3.4347015999956056],[3.434707000036724],588890,001,2024-11-14_16h55.29.050,intentional_binding,2024.2.1post4,60.326147265876486,2024-11-14 16h56.07.176880 +0530,
0.7,1000,exp,27,3,2,space,0.7795826999936253,None,600,1,[2.200739399995655],[2.200744599918835],2,3,27,8,188.42762810003478,,188.41267200000584,188.42762810003478,189.4111550000962,189.4111550000962,189.42788880004082,190.19659020006657,space,0.7795826999936253,None,190.19731590000447,190.91125906672485,191.22752870002296,191.20761770009995,191.20833360007964,191.22752870002296,191.22752870002296,191.22752870002296,193.42910600011237,600,1,[2.200739399995655],[2.200744599918835],588890,001,2024-11-14_16h55.29.050,intentional_binding,2024.2.1post4,60.326147265876486,2024-11-14 16h56.07.176880 +0530,
0.7,1000,exp,28,4,2,space,0.7460765999276191,None,500,1,[3.8830408999929205],[3.8830464000348],2,4,28,11,193.44407460000366,,193.42927170009352,193.44407460000366,194.44457560009323,194.44457560009323,194.44457560009323,195.19473940005992,space,0.7460765999276191,None,195.19527870009188,195.89399346668895,196.2099450000096,196.19752860011067,196.19787480006926,196.2099450000096,196.2099450000096,196.2099450000096,200.09399620001204,500,1,[3.8830408999929205],[3.8830464000348],588890,001,2024-11-14_16h55.29.050,intentional_binding,2024.2.1post4,60.326147265876486,2024-11-14 16h56.07.176880 +0530,
0.4,1000,exp,29,5,2,space,1.6156631999183446,None,350,1,[3.034351099980995],[3.0343566000228748],2,5,29,10,200.11011230002623,,200.09415670007002,200.11011230002623,201.09425730002113,201.09425730002113,201.11138550005853,202.7115290000802,space,1.6156631999183446,None,202.712304100045,203.12639296678051,203.4418047000654,203.41763470007572,203.4179393000668,203.4418047000654,203.4418047000654,203.4418047000654,206.4769198000431,350,1,[3.034351099980995],[3.0343566000228748],588890,001,2024-11-14_16h55.29.050,intentional_binding,2024.2.1post4,60.326147265876486,2024-11-14 16h56.07.176880 +0530,
0.4,1000,exp,30,6,2,space,1.9817421999759972,None,250,1,[3.034073399961926],[3.034079000004567],2,6,30,7,206.4926835000515,,206.4770841000136,206.4926835000515,207.49288930010516,207.49288930010516,207.49288930010516,209.47879190009553,space,1.9817421999759972,None,209.47968130011577,209.89305776678182,210.20837550004944,210.19302400003653,210.19388440006878,210.20837550004944,210.20837550004944,210.20837550004944,213.24341090000235,250,1,[3.034073399961926],[3.034079000004567],588890,001,2024-11-14_16h55.29.050,intentional_binding,2024.2.1post4,60.326147265876486,2024-11-14 16h56.07.176880 +0530,
0.1,400,unexp,31,7,2,space,0.7327816999750212,None,400,1,[6.7835319000296295],[6.783537800074555],2,7,31,0,213.25872330006678,,213.2435805000132,213.25872330006678,214.25762110005599,214.25762110005599,214.25762110005599,214.9923834000947,space,0.7327816999750212,None,214.99283790006302,215.09177636675693,215.40762350009754,215.3875568000367,215.38785360008478,215.40762350009754,215.40762350009754,215.40762350009754,222.19172880006954,400,1,[6.7835319000296295],[6.783537800074555],588890,001,2024-11-14_16h55.29.050,intentional_binding,2024.2.1post4,60.326147265876486,2024-11-14 16h56.07.176880 +0530,
0.7,400,unexp,32,8,2,space,0.9850615999894217,None,850,1,[3.517905000015162],[3.5179142999695614],2,8,32,2,222.20772900001612,,222.19190210010856,222.20772900001612,223.19077830004971,223.19077830004971,223.20743160007987,224.19180540007073,space,0.9850615999894217,None,224.19253990007564,224.90605486667872,225.2224400000414,225.20793910010252,225.20869970007334,225.2224400000414,225.2224400000414,225.2224400000414,228.74108080007136,850,1,[3.517905000015162],[3.5179142999695614],588890,001,2024-11-14_16h55.29.050,intentional_binding,2024.2.1post4,60.326147265876486,2024-11-14 16h56.07.176880 +0530,
0.7,1000,exp,33,9,2,space,0.9955944999819621,None,605,1,[5.099950899952091],[5.09995699999854],2,9,33,5,228.75620190007612,,228.74137450009584,228.75620190007612,229.75584480003454,229.75584480003454,229.75584480003454,230.75767120008823,space,0.9955944999819621,None,230.7584464000538,231.47293226671562,231.78848230000585,231.76781990006566,231.7685059000505,231.78848230000585,231.78848230000585,231.78848230000585,236.88898400007747,605,1,[5.099950899952091],[5.09995699999854],588890,001,2024-11-14_16h55.29.050,intentional_binding,2024.2.1post4,60.326147265876486,2024-11-14 16h56.07.176880 +0530,
0.1,1000,exp,34,10,2,space,0.7842342999065295,None,300,1,[2.885196099989116],[2.8852046000538394],2,10,34,6,236.90455990005285,,236.88915450009517,236.90455990005285,237.88876730005722,237.88876730005722,237.90522680000868,238.6886071000481,space,0.7842342999065295,None,238.68907970003784,238.78774746676598,239.1038665000815,239.08297410001978,239.08338230010122,239.1038665000815,239.1038665000815,239.1038665000815,241.98967620008625,300,1,[2.885196099989116],[2.8852046000538394],588890,001,2024-11-14_16h55.29.050,intentional_binding,2024.2.1post4,60.326147265876486,2024-11-14 16h56.07.176880 +0530,
0.4,1000,exp,35,11,2,space,0.30636909999884665,None,250,1,[3.0668574000010267],[3.0668645000550896],2,11,35,4,242.0046558000613,,241.9898758000927,242.0046558000613,243.00460240000393,243.00460240000393,243.00460240000393,243.32154390006326,space,0.30636909999884665,None,243.32207790005486,243.7214632667058,244.03738860005978,244.01749550004024,244.01828920003027,244.03738860005978,244.03738860005978,244.03738860005978,247.10513920011,250,1,[3.0668574000010267],[3.0668645000550896],588890,001,2024-11-14_16h55.29.050,intentional_binding,2024.2.1post4,60.326147265876486,2024-11-14 16h56.07.176880 +0530,
0.1,1000,exp,36,0,3,space,0.4771786000346765,None,150,1,[2.334186700056307],[2.334194299997762],3,0,36,3,247.12082200008444,,247.1053513000952,247.12082200008444,248.10424480005167,248.10424480005167,248.120714000077,248.58793820010033,space,0.4771786000346765,None,248.58842970000114,248.6874337667289,249.00256360007916,248.98979760007933,248.9901410000166,249.00256360007916,249.00256360007916,249.00256360007916,251.3375473000342,150,1,[2.334186700056307],[2.334194299997762],588890,001,2024-11-14_16h55.29.050,intentional_binding,2024.2.1post4,60.326147265876486,2024-11-14 16h56.07.176880 +0530,
0.7,1000,exp,37,1,3,space,0.3292498999508098,None,100,1,[3.30083049996756],[3.3008364000124857],3,1,37,5,251.35386660008226,,251.33777080010623,251.35386660008226,252.3382166000083,252.3382166000083,252.35367060010321,252.67116550006904,space,0.3292498999508098,None,252.67228680010885,253.3870887667329,253.70219500001986,253.68769420008175,253.68802540004253,253.70219500001986,253.70219500001986,253.70219500001986,257.00358840008266,100,1,[3.30083049996756],[3.3008364000124857],588890,001,2024-11-14_16h55.29.050,intentional_binding,2024.2.1post4,60.326147265876486,2024-11-14 16h56.07.176880 +0530,
0.4,1000,exp,38,2,3,space,0.8494375000009313,None,600,1,[6.283135700039566],[6.2831430999794975],3,2,38,7,257.0195060000988,,257.0037627000129,257.0195060000988,258.0031466000946,258.0031466000946,258.0195817000931,258.85473830008414,space,0.8494375000009313,None,258.85556280007586,259.26875696675074,259.5850089000305,259.568194600055,259.5692747000139,259.5850089000305,259.5850089000305,259.5850089000305,265.8687021000078,600,1,[6.283135700039566],[6.2831430999794975],588890,001,2024-11-14_16h55.29.050,intentional_binding,2024.2.1post4,60.326147265876486,2024-11-14 16h56.07.176880 +0530,
0.1,1000,exp,39,3,3,space,0.314200000022538,None,150,1,[3.6841522000031546],[3.6841579999309033],3,3,39,9,265.8841636000434,,265.86892920010723,265.8841636000434,266.868399900035,266.868399900035,266.88541410001926,267.18677940010093,space,0.314200000022538,None,267.18757540010847,267.3015182667334,267.61704100004863,267.5985302000772,267.5994321000762,267.61704100004863,267.61704100004863,267.61704100004863,271.30193430010695,150,1,[3.6841522000031546],[3.6841579999309033],588890,001,2024-11-14_16h55.29.050,intentional_binding,2024.2.1post4,60.326147265876486,2024-11-14 16h56.07.176880 +0530,
0.1,1000,exp,40,4,3,space,0.947604599990882,None,100,1,[3.5677007999038324],[3.5677070999518037],3,4,40,6,271.3169701000443,,271.3021134000737,271.3169701000443,272.30137490003835,272.30137490003835,272.31840970006306,273.25257160002366,space,0.947604599990882,None,273.25335040001664,273.3677525667629,273.68264830007683,273.66861490008887,273.669311100035,273.68264830007683,273.68264830007683,273.68264830007683,277.2509076000424,100,1,[3.5677007999038324],[3.5677070999518037],588890,001,2024-11-14_16h55.29.050,intentional_binding,2024.2.1post4,60.326147265876486,2024-11-14 16h56.07.176880 +0530,
0.7,1000,exp,41,5,3,space,0.8168892000103369,None,200,1,[3.2994999000802636],[3.2995057000080124],3,5,41,11,277.2665089000948,,277.2510823000921,277.2665089000948,278.2507708000485,278.2507708000485,278.26670330006164,279.0692324000411,space,0.8168892000103369,None,279.06988060008734,279.7841996667596,280.09968270000536,280.0879367000889,280.0884438001085,280.09968270000536,280.09968270000536,280.09968270000536,283.3996719000861,200,1,[3.2994999000802636],[3.2995057000080124],588890,001,2024-11-14_16h55.29.050,intentional_binding,2024.2.1post4,60.326147265876486,2024-11-14 16h56.07.176880 +0530,
0.7,400,unexp,42,6,3,space,0.7157565000234172,None,680,1,[4.217663599993102],[4.217668800032698],3,6,42,2,283.41551440011244,,283.39984850003384,283.41551440011244,284.40025830001105,284.40025830001105,284.4164342000149,285.11896560003515,space,0.7157565000234172,None,285.1197830000892,285.8180426667134,286.1320961000165,286.1185029000044,286.11888360010926,286.1320961000165,286.1320961000165,286.1320961000165,290.35030260006897,680,1,[4.217663599993102],[4.217668800032698],588890,001,2024-11-14_16h55.29.050,intentional_binding,2024.2.1post4,60.326147265876486,2024-11-14 16h56.07.176880 +0530,
0.4,1000,exp,43,7,3,space,0.8852454000152647,None,240,1,[4.3509016000898555],[4.350907400017604],3,7,43,4,290.3653306000633,,290.3505188000854,290.3653306000633,291.36478920001537,291.36478920001537,291.36478920001537,292.26663570001256,space,0.8852454000152647,None,292.267379200086,292.6814377667072,292.9970699000405,292.9781930000754,292.9788222000934,292.9970699000405,292.9970699000405,292.9970699000405,297.34851300006267,240,1,[4.3509016000898555],[4.350907400017604],588890,001,2024-11-14_16h55.29.050,intentional_binding,2024.2.1post4,60.326147265876486,2024-11-14 16h56.07.176880 +0530,
0.1,400,unexp,44,8,3,space,0.174717599991709,None,100,1,[3.1174998000497],[3.1175077999942005],3,8,44,0,297.36379060009494,,297.3487013000995,297.36379060009494,298.3649480000604,298.3649480000604,298.3649480000604,298.5489045000868,space,0.174717599991709,None,298.5494943000376,298.6646398667401,298.97997110011056,298.957994800061,298.95859510009177,298.97997110011056,298.97997110011056,298.97997110011056,302.0980421000859,100,1,[3.1174998000497],[3.1175077999942005],588890,001,2024-11-14_16h55.29.050,intentional_binding,2024.2.1post4,60.326147265876486,2024-11-14 16h56.07.176880 +0530,
0.7,1000,exp,45,9,3,space,0.2869160999543965,None,700,1,[6.0160928999539465],[6.016099500004202],3,9,45,8,302.1130115000997,,302.09820230002515,302.1130115000997,303.09784550010227,303.09784550010227,303.1141891001025,303.3978500000667,space,0.2869160999543965,None,303.3986724000424,304.0981567666788,304.4135582000017,304.398287500022,304.3986512001138,304.4135582000017,304.4135582000017,304.4135582000017,310.43017480010167,700,1,[6.0160928999539465],[6.016099500004202],588890,001,2024-11-14_16h55.29.050,intentional_binding,2024.2.1post4,60.326147265876486,2024-11-14 16h56.07.176880 +0530,
0.4,400,unexp,46,10,3,space,0.232438400038518,None,500,1,[2.751283899997361],[2.7512895999243483],3,10,46,1,310.44549350009765,,310.4303983000573,310.44549350009765,311.42953060008585,311.42953060008585,311.44635020010173,311.6643916000612,space,0.232438400038518,None,311.6651456000982,312.07885236671814,312.39411560003646,312.37935060006566,312.3799099000171,312.39411560003646,312.39411560003646,312.39411560003646,315.1460198001005,500,1,[2.751283899997361],[2.7512895999243483],588890,001,2024-11-14_16h55.29.050,intentional_binding,2024.2.1post4,60.326147265876486,2024-11-14 16h56.07.176880 +0530,
0.4,1000,exp,47,11,3,space,0.25568349997047335,None,250,1,[4.9497794000199065],[4.9497856999514624],3,11,47,10,315.1616134000942,,315.14619160001166,315.1616134000942,316.14515650004614,316.14515650004614,316.1617733000312,316.4132294000592,space,0.25568349997047335,None,316.4137668000767,316.81306146673546,317.12743240001146,317.1079098000191,317.1084574001143,317.12743240001146,317.12743240001146,317.12743240001146,322.07778860011604,250,1,[4.9497794000199065],[4.9497856999514624],588890,001,2024-11-14_16h55.29.050,intentional_binding,2024.2.1post4,60.326147265876486,2024-11-14 16h56.07.176880 +0530,
0.7,400,unexp,48,0,4,space,0.2794383999425918,None,600,1,[2.9677656000712886],[2.9677713999990374],4,0,48,2,322.09415140002966,,322.0779848000966,322.09415140002966,323.0777139000129,323.0777139000129,323.09461120003834,323.3620241000317,space,0.2794383999425918,None,323.36294170003384,324.06157976674535,324.37649090006016,324.3584962000605,324.35921370005235,324.37649090006016,324.37649090006016,324.37649090006016,327.34492910001427,600,1,[2.9677656000712886],[2.9677713999990374],588890,001,2024-11-14_16h55.29.050,intentional_binding,2024.2.1post4,60.326147265876486,2024-11-14 16h56.07.176880 +0530,
0.7,1000,exp,49,1,4,space,0.4217353999847546,None,400,1,[4.084477600059472],[4.084485600003973],4,1,49,5,327.35961730009876,,327.34517960005905,327.35961730009876,328.361537400051,328.361537400051,328.361537400051,328.79500120005105,space,0.4217353999847546,None,328.7957420001039,329.494471266695,329.8100496000843,329.7959030000493,329.79647180007305,329.8100496000843,329.8100496000843,329.8100496000843,333.89545070007443,400,1,[4.084477600059472],[4.084485600003973],588890,001,2024-11-14_16h55.29.050,intentional_binding,2024.2.1post4,60.326147265876486,2024-11-14 16h56.07.176880 +0530,
0.1,1000,exp,50,2,4,space,0.305246900068596,None,150,1,[2.9176429000217468],[2.9176508999662474],4,2,50,6,333.90975690004416,,333.895661400049,333.90975690004416,334.90930290007964,334.90930290007964,334.90930290007964,335.22765160002746,space,0.305246900068596,None,335.22842760011554,335.3268617666947,335.6415707000997,335.6280163000338,335.62851000006776,335.6415707000997,335.6415707000997,335.6415707000997,338.5598752000369,150,1,[2.9176429000217468],[2.9176508999662474],588890,001,2024-11-14_16h55.29.050,intentional_binding,2024.2.1post4,60.326147265876486,2024-11-14 16h56.07.176880 +0530,
0.1,400,unexp,51,3,4,space,0.25874339998699725,None,300,1,[3.135048200027086],[3.1350535000674427],4,3,51,0,338.5762210000539,,338.5600810000906,338.5762210000539,339.560092800064,339.560092800064,339.57561290008016,339.82692650007084,space,0.25874339998699725,None,339.82765680004377,339.9424904666996,340.2581939001102,340.23765610007104,340.23809280002024,340.2581939001102,340.2581939001102,340.2581939001102,343.3937970000552,300,1,[3.135048200027086],[3.1350535000674427],588890,001,2024-11-14_16h55.29.050,intentional_binding,2024.2.1post4,60.326147265876486,2024-11-14 16h56.07.176880 +0530,
0.7,1000,exp,52,4,4,space,0.2786577999358997,None,800,1,[4.484620700008236],[4.48463029996492],4,4,52,8,343.4078300000401,,343.3939652000554,343.4078300000401,344.40793990006205,344.40793990006205,344.40793990006205,344.6937935000751,space,0.2786577999358997,None,344.6945733000757,345.40871936671124,345.7236573001137,345.7085058001103,345.7090203000698,345.7236573001137,345.7236573001137,345.7236573001137,350.20882080006413,800,1,[4.484620700008236],[4.48463029996492],588890,001,2024-11-14_16h55.29.050,intentional_binding,2024.2.1post4,60.326147265876486,2024-11-14 16h56.07.176880 +0530,
0.4,1000,exp,53,5,4,space,0.3269110999535769,None,250,1,[3.685244100051932],[3.6852529000025243],4,5,53,10,350.22411460010335,,350.20897960010916,350.22411460010335,351.2084537000628,351.2084537000628,351.2245750000002,351.54146230011247,space,0.3269110999535769,None,351.5421069000149,351.9405740667755,352.25655680010095,352.2390371001093,352.23988760006614,352.25655680010095,352.25655680010095,352.25655680010095,355.94253990007564,250,1,[3.685244100051932],[3.6852529000025243],588890,001,2024-11-14_16h55.29.050,intentional_binding,2024.2.1post4,60.326147265876486,2024-11-14 16h56.07.176880 +0530,
0.1,1000,exp,54,6,4,space,0.8201760000083596,None,100,1,[2.0844515999779105],[2.0844623999437317],4,6,54,9,355.9573942000279,,355.9428350001108,355.9573942000279,356.9577091000974,356.9577091000974,356.9577091000974,357.791055800044,space,0.8201760000083596,None,357.79160800005775,357.8908104667828,358.2059633000754,358.1964871000964,358.19686110003386,358.2059633000754,358.2059633000754,358.2059633000754,360.29127970000263,100,1,[2.0844515999779105],[2.0844623999437317],588890,001,2024-11-14_16h55.29.050,intentional_binding,2024.2.1post4,60.326147265876486,2024-11-14 16h56.07.176880 +0530,
0.4,1000,exp,55,7,4,space,1.494181300047785,None,500,1,[3.100589200039394],[3.100595200085081],4,7,55,4,360.30667370010633,,360.29156010004226,360.30667370010633,361.30633730010595,361.30633730010595,361.30633730010595,362.8071007000981,space,1.494181300047785,None,362.8080093000317,363.20711666677767,363.5221177000785,363.4984776000492,363.4989708000794,363.5221177000785,363.5221177000785,363.5221177000785,366.6232327000471,500,1,[3.100589200039394],[3.100595200085081],588890,001,2024-11-14_16h55.29.050,intentional_binding,2024.2.1post4,60.326147265876486,2024-11-14 16h56.07.176880 +0530,
0.7,1000,exp,56,8,4,space,0.24841630004812032,None,700,1,[2.0347138999495655],[2.034719999996014],4,8,56,11,366.6390478000976,,366.62347940006293,366.6390478000976,367.62229130009655,367.62229130009655,367.63891550002154,367.8747374000959,space,0.24841630004812032,None,367.87579940003343,368.5888842667375,368.95419420010876,368.93579000001773,368.93632320000324,368.95419420010876,368.95419420010876,368.95419420010876,370.9894905000692,700,1,[2.0347138999495655],[2.034719999996014],588890,001,2024-11-14_16h55.29.050,intentional_binding,2024.2.1post4,60.326147265876486,2024-11-14 16h56.07.176880 +0530,
0.1,1000,exp,57,9,4,space,0.03554039995651692,None,150,1,[2.88416750007309],[2.884174900013022],4,9,57,3,371.00425310002174,,370.98965650005266,371.00425310002174,371.9887415000703,371.9887415000703,372.0051130000502,372.0393122000387,space,0.03554039995651692,None,372.04001870006323,372.13862176676435,372.4538838000735,372.438583600102,372.43913480010815,372.4538838000735,372.4538838000735,372.4538838000735,375.33855910005514,150,1,[2.88416750007309],[2.884174900013022],588890,001,2024-11-14_16h55.29.050,intentional_binding,2024.2.1post4,60.326147265876486,2024-11-14 16h56.07.176880 +0530,
0.4,400,unexp,58,10,4,space,0.2628947999328375,None,300,1,[3.166862600017339],[3.166869100066833],4,10,58,1,375.3542673001066,,375.33872540004086,375.3542673001066,376.3550041000126,376.3550041000126,376.3550041000126,376.62262040004134,space,0.2628947999328375,None,376.6234849001048,377.0386083666856,377.35295480000786,377.33816190005746,377.33883750007953,377.35295480000786,377.35295480000786,377.35295480000786,380.520334300003,300,1,[3.166862600017339],[3.166869100066833],588890,001,2024-11-14_16h55.29.050,intentional_binding,2024.2.1post4,60.326147265876486,2024-11-14 16h56.07.176880 +0530,
0.4,1000,exp,59,11,4,space,0.22964829998090863,None,600,1,[3.034436000045389],[3.0344412999693304],4,11,59,7,380.5366000001086,,380.52051430009305,380.5366000001086,381.52107830008026,381.52107830008026,381.53771700011566,381.7566790001001,space,0.22964829998090863,None,381.7576351000462,382.1696490666984,382.4854141001124,382.4682432000991,382.46890430001076,382.4854141001124,382.4854141001124,382.4854141001124,385.52033650001977,600,1,[3.034436000045389],[3.0344412999693304],588890,001,2024-11-14_16h55.29.050,intentional_binding,2024.2.1post4,60.326147265876486,2024-11-14 16h56.07.176880 +0530,
0.7,1000,exp,60,0,5,space,0.3216717999894172,None,700,1,[3.850834099925123],[3.8508401999715716],5,0,60,8,385.53562880004756,,385.52053290000185,385.53562880004756,386.53672560001723,386.53672560001723,386.53672560001723,386.8704927000217,space,0.3216717999894172,None,386.8710811000783,387.5700785667325,387.88541130011436,387.86854490009136,387.8689357000403,387.88541130011436,387.88541130011436,387.88541130011436,391.7367882000981,700,1,[3.850834099925123],[3.8508401999715716],588890,001,2024-11-14_16h55.29.050,intentional_binding,2024.2.1post4,60.326147265876486,2024-11-14 16h56.07.176880 +0530,
0.1,400,unexp,61,1,5,space,0.2743682999862358,None,350,1,[4.734726299997419],[4.734731999924406],5,1,61,0,391.7519681000849,,391.7369688000763,391.7519681000849,392.73572280001827,392.73572280001827,392.7525120000355,393.01960300002247,space,0.2743682999862358,None,393.0202960000606,393.1188753666977,393.4339775000699,393.4188427000772,393.41940070001874,393.4339775000699,393.4339775000699,393.4339775000699,398.16918520000763,350,1,[4.734726299997419],[4.734731999924406],588890,001,2024-11-14_16h55.29.050,intentional_binding,2024.2.1post4,60.326147265876486,2024-11-14 16h56.07.176880 +0530,
0.4,1000,exp,62,2,5,space,0.3800865000812337,None,450,1,[7.200483500026166],[7.200488999951631],5,2,62,7,398.1838148001116,,398.169376200065,398.1838148001116,399.1673059000168,399.1673059000168,399.18434140004683,399.5523509000195,space,0.3800865000812337,None,399.55306440009736,399.9519213666829,400.2668480001157,400.24777180003,400.2483680000296,400.2668480001157,400.2668480001157,400.2668480001157,407.46788380004,450,1,[7.200483500026166],[7.200488999951631],588890,001,2024-11-14_16h55.29.050,intentional_binding,2024.2.1post4,60.326147265876486,2024-11-14 16h56.07.176880 +0530,
0.7,1000,exp,63,3,5,space,0.2701517000095919,None,600,1,[4.136163500021212],[4.136170699959621],5,3,63,5,407.4830612000078,,407.4680619999999,407.4830612000078,408.4676972000161,408.4676972000161,408.4841574000893,408.7509847000474,space,0.2701517000095919,None,408.7515296000056,409.4503938666933,409.7653251000447,409.74886750010774,409.7498394000577,409.7653251000447,409.7653251000447,409.7653251000447,413.9020866000792,600,1,[4.136163500021212],[4.136170699959621],588890,001,2024-11-14_16h55.29.050,intentional_binding,2024.2.1post4,60.326147265876486,2024-11-14 16h56.07.176880 +0530,
0.1,1000,exp,64,4,5,space,0.2977297999896109,None,350,1,[3.600722700008191],[3.6007330999709666],5,4,64,6,413.9156069000019,,413.90227230009623,413.9156069000019,414.9164254000643,414.9164254000643,414.9164254000643,415.2177894000197,space,0.2977297999896109,None,415.2187585000647,415.317329566755,415.6318602000829,415.62158130004536,415.6219822000712,415.6318602000829,415.6318602000829,415.6318602000829,419.23344170011114,350,1,[3.600722700008191],[3.6007330999709666],588890,001,2024-11-14_16h55.29.050,intentional_binding,2024.2.1post4,60.326147265876486,2024-11-14 16h56.07.176880 +0530,
0.4,1000,exp,65,5,5,space,0.24842730001546443,None,250,1,[3.2330156000098214],[3.2330209999345243],5,5,65,10,419.24957890005317,,419.23370660003275,419.24957890005317,420.23229190008715,420.23229190008715,420.24897740001325,420.48424610006623,space,0.24842730001546443,None,420.485152700101,420.8990099667028,421.2145845000632,421.19861430011224,421.1990928000305,421.2145845000632,421.2145845000632,421.2145845000632,424.44824010005686,250,1,[3.2330156000098214],[3.2330209999345243],588890,001,2024-11-14_16h55.29.050,intentional_binding,2024.2.1post4,60.326147265876486,2024-11-14 16h56.07.176880 +0530,
0.7,1000,exp,66,6,5,space,0.71922780002933,None,400,1,[5.083395499968901],[5.08340160001535],5,6,66,11,424.46431870001834,,424.44840420002583,424.46431870001834,425.4483614000492,425.4483614000492,425.4651887000073,426.18221670005005,space,0.71922780002933,None,426.1828548000194,426.89786286669937,427.21458650007844,427.19898860005196,427.1996835001046,427.21458650007844,427.21458650007844,427.21458650007844,432.2987598000327,400,1,[5.083395499968901],[5.08340160001535],588890,001,2024-11-14_16h55.29.050,intentional_binding,2024.2.1post4,60.326147265876486,2024-11-14 16h56.07.176880 +0530,
0.7,400,unexp,67,7,5,space,0.31414600007701665,None,800,1,[3.8999699999112636],[3.8999803999904543],5,7,67,2,432.31398140010424,,432.29895170009695,432.31398140010424,433.3142531000776,433.3142531000776,433.3142531000776,433.63274640007876,space,0.31414600007701665,None,433.63365690002684,434.34710416669645,434.6471878000302,434.6309342000168,434.63124610006344,434.6471878000302,434.6471878000302,434.6471878000302,438.5478339000838,800,1,[3.8999699999112636],[3.8999803999904543],588890,001,2024-11-14_16h55.29.050,intentional_binding,2024.2.1post4,60.326147265876486,2024-11-14 16h56.07.176880 +0530,
0.4,1000,exp,68,8,5,space,0.35803859995212406,None,300,1,[3.400596399907954],[3.4006015999475494],5,8,68,4,438.5626076000044,,438.5480574000394,438.5626076000044,439.563509000116,439.563509000116,439.563509000116,439.93106590001844,space,0.35803859995212406,None,439.9315682000015,440.346923666719,440.66220630006865,440.64369310007896,440.6443647000706,440.66220630006865,440.66220630006865,440.66220630006865,444.06329990003724,300,1,[3.400596399907954],[3.4006015999475494],588890,001,2024-11-14_16h55.29.050,intentional_binding,2024.2.1post4,60.326147265876486,2024-11-14 16h56.07.176880 +0530,
0.4,400,unexp,69,9,5,space,0.2857145000016317,None,400,1,[4.367096400004812],[4.367101600044407],5,9,69,1,444.0781398001127,,444.0634855000535,444.0781398001127,445.0784676000476,445.0784676000476,445.0784676000476,445.37868720002007,space,0.2857145000016317,None,445.37926290009636,445.7783446667638,446.09452890011016,446.0790619000327,446.07962680002674,446.09452890011016,446.09452890011016,446.09452890011016,450.4621150000021,400,1,[4.367096400004812],[4.367101600044407],588890,001,2024-11-14_16h55.29.050,intentional_binding,2024.2.1post4,60.326147265876486,2024-11-14 16h56.07.176880 +0530,
0.1,1000,exp,70,10,5,space,0.3753764000721276,None,250,1,[2.9172401999821886],[2.91724549990613],5,10,70,3,450.477383700083,,450.4622675999999,450.477383700083,451.47765760007314,451.47765760007314,451.47765760007314,451.86277660005726,space,0.3753764000721276,None,451.8634521000786,451.9783166667369,452.2937123000156,452.2729993000394,452.27362080011517,452.2937123000156,452.2937123000156,452.2937123000156,455.211720900028,250,1,[2.9172401999821886],[2.91724549990613],588890,001,2024-11-14_16h55.29.050,intentional_binding,2024.2.1post4,60.326147265876486,2024-11-14 16h56.07.176880 +0530,
0.1,1000,exp,71,11,5,space,0.2794514000415802,None,150,1,[2.0191128000151366],[2.0191208999603987],5,11,71,9,455.22750620008446,,455.2118764000479,455.22750620008446,456.2278280000901,456.2278280000901,456.2278280000901,456.51222780009266,space,0.2794514000415802,None,456.5131487000035,456.62783106667143,456.94254680001177,456.9279497000389,456.92845840007067,456.94254680001177,456.94254680001177,456.94254680001177,458.962181000039,150,1,[2.0191128000151366],[2.0191208999603987],588890,001,2024-11-14_16h55.29.050,intentional_binding,2024.2.1post4,60.326147265876486,2024-11-14 16h56.07.176880 +0530,
0.1,1000,exp,72,0,6,space,1.2253312000539154,None,100,1,[1.7510802999604493],[1.7510864000068977],6,0,72,9,458.97639960004017,,458.96237590000965,458.97639960004017,459.97652930009644,459.97652930009644,459.97652930009644,461.211908300058,space,1.2253312000539154,None,461.2125243000919,461.31098496675645,461.625645800028,461.6084995000856,461.6092040000949,461.625645800028,461.625645800028,461.625645800028,463.37733850011136,100,1,[1.7510802999604493],[1.7510864000068977],588890,001,2024-11-14_16h55.29.050,intentional_binding,2024.2.1post4,60.326147265876486,2024-11-14 16h56.07.176880 +0530,
0.1,400,unexp,73,1,6,space,0.48158380005043,None,300,1,[5.683677299995907],[5.683683499926701],6,1,73,0,463.3924279001076,,463.3775945000816,463.3924279001076,464.3925153000746,464.3925153000746,464.3925153000746,464.87775100010913,space,0.48158380005043,None,464.87842160009313,464.97714806668614,465.3084461000981,465.2789500000654,465.27958990004845,465.3084461000981,465.3084461000981,465.3084461000981,470.993050100049,300,1,[5.683677299995907],[5.683683499926701],588890,001,2024-11-14_16h55.29.050,intentional_binding,2024.2.1post4,60.326147265876486,2024-11-14 16h56.07.176880 +0530,
0.1,1000,exp,74,2,6,space,0.12957780004944652,None,150,1,[2.184247800032608],[2.184254000079818],6,2,74,6,471.0088554000249,,470.99326290003955,471.0088554000249,472.0088790000882,472.0088790000882,472.0088790000882,472.14385380002204,space,0.12957780004944652,None,472.1447796000866,472.2591849667408,472.57437800010666,472.5593378000194,472.56006500008516,472.57437800010666,472.57437800010666,472.57437800010666,474.7591294000158,150,1,[2.184247800032608],[2.184254000079818],588890,001,2024-11-14_16h55.29.050,intentional_binding,2024.2.1post4,60.326147265876486,2024-11-14 16h56.07.176880 +0530,
0.4,1000,exp,75,3,6,space,0.7045266999630257,None,650,1,[2.9018226000480354],[2.901835500029847],6,3,75,7,474.77424620010424,,474.75932850001846,474.77424620010424,475.75814750010613,475.75814750010613,475.7750245000934,476.4765475000022,space,0.7045266999630257,None,476.4770869000349,476.8765827667123,477.19141290010884,477.1762984000379,477.17683800007217,477.19141290010884,477.19141290010884,477.19141290010884,480.09422080009244,650,1,[2.9018226000480354],[2.901835500029847],588890,001,2024-11-14_16h55.29.050,intentional_binding,2024.2.1post4,60.326147265876486,2024-11-14 16h56.07.176880 +0530,
0.4,1000,exp,76,4,6,space,0.271543400012888,None,450,1,[2.518474300042726],[2.5184824999887496],6,4,76,10,480.10759410005994,,480.0947003000183,480.10759410005994,481.1080418000929,481.1080418000929,481.1080418000929,481.3918832000345,space,0.271543400012888,None,481.39256300008856,481.79156286671446,482.1064996001078,482.08882840001024,482.08971940004267,482.1064996001078,482.1064996001078,482.1064996001078,484.6256890000077,450,1,[2.518474300042726],[2.5184824999887496],588890,001,2024-11-14_16h55.29.050,intentional_binding,2024.2.1post4,60.326147265876486,2024-11-14 16h56.07.176880 +0530,
0.4,1000,exp,77,5,6,space,0.2644610999850556,None,845,1,[3.8851811001077294],[3.8851928000804037],6,5,77,4,484.6402727001114,,484.62596210010815,484.6402727001114,485.6407950000139,485.6407950000139,485.6407950000139,485.90914480003994,space,0.2644610999850556,None,485.9098554000957,486.32430836669323,486.63926010008436,486.61850430001505,486.61897240008693,486.63926010008436,486.63926010008436,486.63926010008436,490.52532720007,845,1,[3.8851811001077294],[3.8851928000804037],588890,001,2024-11-14_16h55.29.050,intentional_binding,2024.2.1post4,60.326147265876486,2024-11-14 16h56.07.176880 +0530,
0.7,1000,exp,78,6,6,space,0.29792279994580895,None,754,1,[7.001076800050214],[7.001082499977201],6,6,78,8,490.539879100048,,490.52557630010415,490.539879100048,491.5400340000633,491.5400340000633,491.5400340000633,491.8412857000949,space,0.29792279994580895,None,491.842063200078,492.5558134667265,492.8718210000079,492.85821190010756,492.8585477001034,492.8718210000079,492.8718210000079,492.8718210000079,499.8734040000709,754,1,[7.001076800050214],[7.001082499977201],588890,001,2024-11-14_16h55.29.050,intentional_binding,2024.2.1post4,60.326147265876486,2024-11-14 16h56.07.176880 +0530,
0.7,1000,exp,79,7,6,space,0.7004555999301374,None,450,1,[3.2000743000535294],[3.2000803999835625],6,7,79,11,499.88907020003535,,499.87358180002775,499.88907020003535,500.88886350009125,500.88886350009125,500.88886350009125,501.6057893000543,space,0.7004555999301374,None,501.6062284000218,502.32145436673113,502.63769900007173,502.6183727000607,502.61911210010294,502.63769900007173,502.63769900007173,502.63769900007173,505.8383608000586,450,1,[3.2000743000535294],[3.2000803999835625],588890,001,2024-11-14_16h55.29.050,intentional_binding,2024.2.1post4,60.326147265876486,2024-11-14 16h56.07.176880 +0530,
0.1,1000,exp,80,8,6,space,0.782231800025329,None,680,1,[2.534753100015223],[2.534760000067763],6,8,80,3,505.8542106000241,,505.83853630011436,505.8542106000241,506.85401880007703,506.85401880007703,506.85401880007703,507.6402103001019,space,0.782231800025329,None,507.6412473000819,507.75513836677806,508.0694910000311,508.0483832000755,508.04906270001084,508.0694910000311,508.0694910000311,508.0694910000311,510.6054729000898,680,1,[2.534753100015223],[2.534760000067763],588890,001,2024-11-14_16h55.29.050,intentional_binding,2024.2.1post4,60.326147265876486,2024-11-14 16h56.07.176880 +0530,
0.7,1000,exp,81,9,6,space,2.230945899966173,None,900,1,[4.267892500036396],[4.267898199963383],6,9,81,5,510.620408100076,,510.6056630000239,510.620408100076,511.60408990003634,511.60408990003634,511.6200506000314,513.8395133001031,space,2.230945899966173,None,513.8404895000858,514.5542169666771,514.8685287000844,514.8485396000324,514.8492169000674,514.8685287000844,514.8685287000844,514.8685287000844,519.1369479000568,900,1,[4.267892500036396],[4.267898199963383],588890,001,2024-11-14_16h55.29.050,intentional_binding,2024.2.1post4,60.326147265876486,2024-11-14 16h56.07.176880 +0530,
0.4,400,unexp,82,10,6,space,0.08827850001398474,None,300,1,[2.9513240000233054],[2.9513293999480084],6,10,82,1,519.152118200087,,519.1371288000373,519.152118200087,520.1523119000485,520.1523119000485,520.1523119000485,520.2539565000916,space,0.08827850001398474,None,520.2547316000564,520.6531654666799,520.9679167000577,520.9479910000227,520.9485511000967,520.9679167000577,520.9679167000577,520.9679167000577,523.9197436000686,300,1,[2.9513240000233054],[2.9513293999480084],588890,001,2024-11-14_16h55.29.050,intentional_binding,2024.2.1post4,60.326147265876486,2024-11-14 16h56.07.176880 +0530,
0.7,400,unexp,83,11,6,space,0.39752370002679527,None,280,1,[3.2510818999726325],[3.251087100012228],6,11,83,2,523.9346868001157,,523.919907100033,523.9346868001157,524.9199085000437,524.9199085000437,524.936179600074,525.3202187001007,space,0.39752370002679527,None,525.3210461001145,526.0357420667463,526.3507805000991,526.3374315000838,526.3379451000364,526.3507805000991,526.3507805000991,526.3507805000991,529.602356800111,280,1,[3.2510818999726325],[3.251087100012228],588890,001,2024-11-14_16h55.29.050,intentional_binding,2024.2.1post4,60.326147265876486,2024-11-14 16h56.07.176880 +0530,
0.4,400,unexp,84,0,7,space,0.04726189991924912,None,250,1,[2.5988999999826774],[2.5989094999385998],7,0,84,1,529.6172714000568,,529.602533300058,529.6172714000568,530.6185594000854,530.6185594000854,530.6185594000854,530.6690997000551,space,0.04726189991924912,None,530.6696034000488,531.0851685667333,531.4180687000044,531.4008840000024,531.4012309000827,531.4180687000044,531.4180687000044,531.4180687000044,534.017581500113,250,1,[2.5988999999826774],[2.5989094999385998],588890,001,2024-11-14_16h55.29.050,intentional_binding,2024.2.1post4,60.326147265876486,2024-11-14 16h56.07.176880 +0530,
0.7,1000,exp,85,1,7,space,0.6298946000169963,None,450,1,[17.398834399995394],[17.398840800044127],7,1,85,8,534.0334190001013,,534.0177887000609,534.0334190001013,535.0168161001056,535.0168161001056,535.0341217000969,535.6526756000239,space,0.6298946000169963,None,535.6538716000505,536.3675446666932,536.6832179001067,536.668272000039,536.6686792001128,536.6832179001067,536.6832179001067,536.6832179001067,554.0826716000447,450,1,[17.398834399995394],[17.398840800044127],588890,001,2024-11-14_16h55.29.050,intentional_binding,2024.2.1post4,60.326147265876486,2024-11-14 16h56.07.176880 +0530,
0.7,1000,exp,86,2,7,space,0.13654809992294759,None,550 ,1,[5.133841600036249],[5.1338518999982625],7,2,86,11,554.0977022000588,,554.0828423000639,554.0977022000588,555.0980037000263,555.0980037000263,555.0980037000263,555.2482202000683,space,0.13654809992294759,None,555.2487247000681,555.9485120666834,556.2639031000435,556.2479683000129,556.2484358000802,556.2639031000435,556.2639031000435,556.2639031000435,561.3985816000495,550 ,1,[5.133841600036249],[5.1338518999982625],588890,001,2024-11-14_16h55.29.050,intentional_binding,2024.2.1post4,60.326147265876486,2024-11-14 16h56.07.176880 +0530,
0.1,1000,exp,87,3,7,space,0.31327359995339066,None,250,1,[2.5348610000219196],[2.5348737000022084],7,3,87,6,561.414856800111,,561.3989182000514,561.414856800111,562.3968149001012,562.3968149001012,562.4298135000281,562.715219900012,space,0.31327359995339066,None,562.7159203001065,562.8309112666795,563.1458096000133,563.1282660000725,563.1289047000464,563.1458096000133,563.1458096000133,563.1458096000133,565.6812967000296,250,1,[2.5348610000219196],[2.5348737000022084],588890,001,2024-11-14_16h55.29.050,intentional_binding,2024.2.1post4,60.326147265876486,2024-11-14 16h56.07.176880 +0530,
0.4,1000,exp,88,4,7,space,2.3489252000581473,None,480,1,[6.200818600016646],[6.200835599913262],7,4,88,7,565.6958431000821,,565.6814970000414,565.6958431000821,566.6800684001064,566.6800684001064,566.6969577000709,569.0315936000552,space,2.3489252000581473,None,569.0323194001103,569.446747466751,569.7616507000057,569.737676900113,569.7381228000158,569.7616507000057,569.7616507000057,569.7616507000057,575.9630453001009,480,1,[6.200818600016646],[6.200835599913262],588890,001,2024-11-14_16h55.29.050,intentional_binding,2024.2.1post4,60.326147265876486,2024-11-14 16h56.07.176880 +0530,
0.1,1000,exp,89,5,7,space,0.6888046000385657,None,300,1,[5.651021700003184],[5.651028199936263],7,5,89,9,575.9784860000946,,575.9632227000548,575.9784860000946,576.9628026001155,576.9628026001155,576.9797317000339,577.6628725000191,space,0.6888046000385657,None,577.6640792000107,577.778250466745,578.0942305000499,578.0789878000505,578.0795757001033,578.0942305000499,578.0942305000499,578.0942305000499,583.7458170000464,300,1,[5.651021700003184],[5.651028199936263],588890,001,2024-11-14_16h55.29.050,intentional_binding,2024.2.1post4,60.326147265876486,2024-11-14 16h56.07.176880 +0530,
0.1,1000,exp,90,6,7,space,2.40569859999232,None,150,1,[3.2674300000071526],[3.2674371000612155],7,6,90,3,583.7603362000082,,583.7459939001128,583.7603362000082,584.7453389000148,584.7453389000148,584.7614999000216,587.1604365000967,space,2.40569859999232,None,587.1609505000524,587.2612381667752,587.576371800038,587.5581661000615,587.5585721000098,587.576371800038,587.576371800038,587.576371800038,590.8444766000612,150,1,[3.2674300000071526],[3.2674371000612155],588890,001,2024-11-14_16h55.29.050,intentional_binding,2024.2.1post4,60.326147265876486,2024-11-14 16h56.07.176880 +0530,
0.4,1000,exp,91,7,7,space,0.22450280003249645,None,600,1,[3.400897499988787],[3.400906899943948],7,7,91,4,590.8598182001151,,590.8447617000202,590.8598182001151,591.8434436001116,591.8434436001116,591.859789900016,592.0777459000237,space,0.22450280003249645,None,592.0784839000553,592.477465766777,592.8091412000358,592.7781834000489,592.7787112001097,592.8091412000358,592.8091412000358,592.8091412000358,596.2109542000107,600,1,[3.400897499988787],[3.400906899943948],588890,001,2024-11-14_16h55.29.050,intentional_binding,2024.2.1post4,60.326147265876486,2024-11-14 16h56.07.176880 +0530,
0.1,400,unexp,92,8,7,space,0.22114509996026754,None,200,1,[8.900546099990606],[8.90055219992064],7,8,92,0,596.2261615000898,,596.2112499000505,596.2261615000898,597.2262985000852,597.2262985000852,597.2262985000852,597.4612326000351,space,0.22114509996026754,None,597.4619030000176,597.5603736667583,597.8747533001006,597.8580613000086,597.858763400116,597.8747533001006,597.8747533001006,597.8747533001006,606.7758607000578,200,1,[8.900546099990606],[8.90055219992064],588890,001,2024-11-14_16h55.29.050,intentional_binding,2024.2.1post4,60.326147265876486,2024-11-14 16h56.07.176880 +0530,
0.7,1000,exp,93,9,7,space,0.21048450004309416,None,980,1,[7.700781099963933],[7.700788999907672],7,9,93,5,606.7917872000253,,606.7760342000984,606.7917872000253,607.7918234000681,607.7918234000681,607.7918234000681,608.0091861000983,space,0.21048450004309416,None,608.009892800008,608.7252407667149,609.040014200029,609.018045200035,609.0185158000095,609.040014200029,609.040014200029,609.040014200029,616.7415343000321,980,1,[7.700781099963933],[7.700788999907672],588890,001,2024-11-14_16h55.29.050,intentional_binding,2024.2.1post4,60.326147265876486,2024-11-14 16h56.07.176880 +0530,
0.4,1000,exp,94,10,7,space,0.23457700002472848,None,250,1,[2.618309500045143],[2.6183201000094414],7,10,94,10,616.7574014000129,,616.7417653000448,616.7574014000129,617.742227400071,617.742227400071,617.7583018000005,617.9928368000546,space,0.23457700002472848,None,617.9935078000417,618.4074098667518,618.7231986001134,618.7083158000605,618.7090946000535,618.7231986001134,618.7231986001134,618.7231986001134,621.3423608000157,250,1,[2.618309500045143],[2.6183201000094414],588890,001,2024-11-14_16h55.29.050,intentional_binding,2024.2.1post4,60.326147265876486,2024-11-14 16h56.07.176880 +0530,
0.7,400,unexp,95,11,7,space,0.2575539000099525,None,640,1,[3.683525800006464],[3.6835328000597656],7,11,95,2,621.3571777000325,,621.3427202000748,621.3571777000325,622.3409784000833,622.3409784000833,622.3573078000918,622.6088386001065,space,0.2575539000099525,None,622.6095515000634,623.3242330667019,623.638969700085,623.6184909000294,623.6189712000778,623.638969700085,623.638969700085,623.638969700085,627.3230921000941,640,1,[3.683525800006464],[3.6835328000597656],588890,001,2024-11-14_16h55.29.050,intentional_binding,2024.2.1post4,60.326147265876486,2024-11-14 16h56.07.176880 +0530,
0.1,1000,exp,96,0,8,space,0.332702900050208,None,300,1,[4.6667091000126675],[4.666716400068253],8,0,96,3,627.338089200086,,627.3232602000935,627.338089200086,628.3223503000336,628.3223503000336,628.338826600113,628.6569851000095,space,0.332702900050208,None,628.6576087001013,628.771303766702,629.0875119001139,629.0684199000243,629.0689120000461,629.0875119001139,629.0875119001139,629.0875119001139,633.7549167000689,300,1,[4.6667091000126675],[4.666716400068253],588890,001,2024-11-14_16h55.29.050,intentional_binding,2024.2.1post4,60.326147265876486,2024-11-14 16h56.07.176880 +0530,
0.4,1000,exp,97,1,8,space,0.5650579000357538,None,500,1,[2.601417800062336],[2.6014245999976993],8,1,97,7,633.7715009000385,,633.7551423000405,633.7715009000385,634.7544866000535,634.7544866000535,634.7718736000825,635.322763800039,space,0.5650579000357538,None,635.323565900093,635.7379447667083,636.0529252000852,636.0386312000919,636.0392717000796,636.0529252000852,636.0529252000852,636.0529252000852,638.6550007000333,500,1,[2.601417800062336],[2.6014245999976993],588890,001,2024-11-14_16h55.29.050,intentional_binding,2024.2.1post4,60.326147265876486,2024-11-14 16h56.07.176880 +0530,
0.7,1000,exp,98,2,8,space,0.24431249999906868,None,700,1,[4.766779800062068],[4.766785899992101],8,2,98,11,638.6711905000266,,638.6552076000953,638.6711905000266,639.6544535000576,639.6544535000576,639.6709524000762,639.9047294000629,space,0.24431249999906868,None,639.9053083000472,640.6047244667463,640.919934000005,640.89811560011,640.8985500000417,640.919934000005,640.919934000005,640.919934000005,645.6872757000383,700,1,[4.766779800062068],[4.766785899992101],588890,001,2024-11-14_16h55.29.050,intentional_binding,2024.2.1post4,60.326147265876486,2024-11-14 16h56.07.176880 +0530,
0.4,1000,exp,99,3,8,space,0.1971806000219658,None,650,1,[3.017747199977748],[3.0177533999085426],8,3,99,10,645.7026251000352,,645.6874519000994,645.7026251000352,646.6874679001048,646.6874679001048,646.7030155000975,646.8895767000504,space,0.1971806000219658,None,646.8904011000413,647.2893024667321,647.602683700039,647.589280800079,647.58974090009,647.602683700039,647.602683700039,647.602683700039,650.6211167000001,650,1,[3.017747199977748],[3.0177533999085426],588890,001,2024-11-14_16h55.29.050,intentional_binding,2024.2.1post4,60.326147265876486,2024-11-14 16h56.07.176880 +0530,
0.4,400,unexp,100,4,8,space,1.5804961000103503,None,850,1,[7.76586959999986],[7.765877100056969],8,4,100,1,650.6358071001014,,650.6213666000403,650.6358071001014,651.6355290000793,651.6355290000793,651.6355290000793,653.2214902000269,space,1.5804961000103503,None,653.2226065000286,653.6355704666969,653.9513726000441,653.9335917000426,653.9345202000113,653.9513726000441,653.9513726000441,653.9513726000441,661.7178309001029,850,1,[7.76586959999986],[7.765877100056969],588890,001,2024-11-14_16h55.29.050,intentional_binding,2024.2.1post4,60.326147265876486,2024-11-14 16h56.07.176880 +0530,
0.1,1000,exp,101,5,8,space,0.044677000027149916,None,100,1,[2.851380700012669],[2.8513899999670684],8,5,101,9,661.7340503000887,,661.7179965000832,661.7340503000887,662.7182301001158,662.7182301001158,662.7347890000092,662.7695804000832,space,0.044677000027149916,None,662.7703135000775,662.8840208667718,663.1999937000219,663.178612900083,663.1792265000986,663.1999937000219,663.1999937000219,663.1999937000219,666.0521936001023,100,1,[2.851380700012669],[2.8513899999670684],588890,001,2024-11-14_16h55.29.050,intentional_binding,2024.2.1post4,60.326147265876486,2024-11-14 16h56.07.176880 +0530,
0.7,400,unexp,102,6,8,space,1.6180348000489175,None,450,1,[4.134163800044917],[4.1341702999779955],8,6,102,2,666.0673241000623,,666.052386000054,666.0673241000623,667.0687966000987,667.0687966000987,667.0687966000987,668.7022815000964,space,1.6180348000489175,None,668.7031155000441,669.4174505667218,669.7324517000234,669.7129591000266,669.7143983000424,669.7324517000234,669.7324517000234,669.7324517000234,673.8671761000296,450,1,[4.134163800044917],[4.1341702999779955],588890,001,2024-11-14_16h55.29.050,intentional_binding,2024.2.1post4,60.326147265876486,2024-11-14 16h56.07.176880 +0530,
0.4,1000,exp,103,7,8,space,0.7153896000236273,None,550,1,[6.450963200069964],[6.450968699995428],8,7,103,4,673.8823676001048,,673.867353000096,673.8823676001048,674.8666720000328,674.8666720000328,674.8834766000509,675.584817300085,space,0.7153896000236273,None,675.5856623,675.9998324667724,676.3149158000015,676.2984705000417,676.2993047001073,676.3149158000015,676.3149158000015,676.3149158000015,682.766400600085,550,1,[6.450963200069964],[6.450968699995428],588890,001,2024-11-14_16h55.29.050,intentional_binding,2024.2.1post4,60.326147265876486,2024-11-14 16h56.07.176880 +0530,
0.7,1000,exp,104,8,8,space,0.7910849000327289,None,350,1,[17.899525100016035],[17.89953139994759],8,8,104,5,682.7816773001105,,682.7665677000768,682.7816773001105,683.7814782001078,683.7814782001078,683.7814782001078,684.5826987000182,space,0.7910849000327289,None,684.5834418000886,685.2817875666699,685.5970273000421,685.5784205000382,685.5791186001152,685.5970273000421,685.5970273000421,685.5970273000421,703.4971444000257,350,1,[17.899525100016035],[17.89953139994759],588890,001,2024-11-14_16h55.29.050,intentional_binding,2024.2.1post4,60.326147265876486,2024-11-14 16h56.07.176880 +0530,
0.7,1000,exp,105,9,8,space,1.098067400045693,None,465,1,[3.4676681000273675],[3.467674200073816],8,9,105,8,703.5120317001129,,703.4973296000389,703.5120317001129,704.4960609000409,704.4960609000409,704.5130234000972,705.5972747000633,space,1.098067400045693,None,705.5979162000585,706.3124394667723,706.6277057001134,706.607838200056,706.608223300078,706.6277057001134,706.6277057001134,706.6277057001134,710.095887600095,465,1,[3.4676681000273675],[3.467674200073816],588890,001,2024-11-14_16h55.29.050,intentional_binding,2024.2.1post4,60.326147265876486,2024-11-14 16h56.07.176880 +0530,
0.1,400,unexp,106,10,8,space,0.27699470007792115,None,250,1,[2.801205200026743],[2.8012128999689594],8,10,106,0,710.1109461000888,,710.0960494000465,710.1109461000888,711.1111018001102,711.1111018001102,711.1111018001102,711.3954163000453,space,0.27699470007792115,None,711.3960178000852,711.4961295667492,711.8102486000862,711.7877406000625,711.7882034000941,711.8102486000862,711.8102486000862,711.8102486000862,714.612214700086,250,1,[2.801205200026743],[2.8012128999689594],588890,001,2024-11-14_16h55.29.050,intentional_binding,2024.2.1post4,60.326147265876486,2024-11-14 16h56.07.176880 +0530,
0.1,1000,exp,107,11,8,space,0.1898311999393627,None,150,1,[2.1181576000526547],[2.1181637999834493],8,11,107,6,714.6280065000756,,714.6124067000346,714.6280065000756,715.6281438000733,715.6281438000733,715.6281438000733,715.8287529000081,space,0.1898311999393627,None,715.8295265000779,715.9446718667789,716.2597388001159,716.2384042000631,716.2389822000405,716.2597388001159,716.2597388001159,716.2597388001159,718.3784445000347,150,1,[2.1181576000526547],[2.1181637999834493],588890,001,2024-11-14_16h55.29.050,intentional_binding,2024.2.1post4,60.326147265876486,2024-11-14 16h56.07.176880 +0530,
0.7,400,unexp,108,0,9,space,0.22951199999079108,None,900,1,[1.8676554000703618],[1.867661299998872],9,0,108,2,718.3935607000021,,718.3786111000227,718.3935607000021,719.3783633001149,719.3783633001149,719.3941306000343,719.6115094000706,space,0.22951199999079108,None,719.6122545000399,720.3109533667487,720.6261425000848,720.6083054000046,720.6090305000544,720.6261425000848,720.6261425000848,720.6261425000848,722.4943234000821,900,1,[1.8676554000703618],[1.867661299998872],588890,001,2024-11-14_16h55.29.050,intentional_binding,2024.2.1post4,60.326147265876486,2024-11-14 16h56.07.176880 +0530,
0.7,1000,exp,109,1,9,space,0.26503699994646013,None,650,1,[3.3508676000637934],[3.350873399991542],9,1,109,11,722.5104458000278,,722.4945582000073,722.5104458000278,723.510049500037,723.510049500037,723.510049500037,723.7787464000285,space,0.26503699994646013,None,723.779473700095,724.4933860666972,724.8089407000225,724.7881496000336,724.7887002000352,724.8089407000225,724.8089407000225,724.8089407000225,728.1603392000543,650,1,[3.3508676000637934],[3.350873399991542],588890,001,2024-11-14_16h55.29.050,intentional_binding,2024.2.1post4,60.326147265876486,2024-11-14 16h56.07.176880 +0530,
0.4,1000,exp,110,2,9,space,0.2678187000565231,None,150,1,[1.9021330000832677],[1.9021399000193924],9,2,110,10,728.1755666000536,,728.160508000059,728.1755666000536,729.1597194001079,729.1597194001079,729.1763130000327,729.4432565000607,space,0.2678187000565231,None,729.4440279001137,729.8423887667634,730.1587786000455,730.1424279001076,730.1429993000347,730.1587786000455,730.1587786000455,730.1587786000455,732.0615217000013,150,1,[1.9021330000832677],[1.9021399000193924],588890,001,2024-11-14_16h55.29.050,intentional_binding,2024.2.1post4,60.326147265876486,2024-11-14 16h56.07.176880 +0530,
0.7,1000,exp,111,3,9,space,0.13898260006681085,None,350,1,[3.8844979000277817],[3.884505500085652],9,3,111,5,732.0760101000778,,732.0617223000154,732.0760101000778,733.0759194000857,733.0759194000857,733.0759194000857,733.2269197000423,space,0.13898260006681085,None,733.2276196000166,733.9415460667262,734.257544400054,734.2338195000775,734.2342728000367,734.257544400054,734.257544400054,734.257544400054,738.1427634001011,350,1,[3.8844979000277817],[3.884505500085652],588890,001,2024-11-14_16h55.29.050,intentional_binding,2024.2.1post4,60.326147265876486,2024-11-14 16h56.07.176880 +0530,
0.4,400,unexp,112,4,9,space,0.40348229999653995,None,450,1,[3.001083999988623],[3.001090200035833],9,4,112,1,738.1578315000515,,738.1430032000644,738.1578315000515,739.1414983000141,739.1414983000141,739.1578346000751,739.5585665000835,space,0.40348229999653995,None,739.5590974000515,739.9580760667488,740.2577725000447,740.2457485001069,740.2460770000471,740.2577725000447,740.2577725000447,740.2577725000447,743.2594744000817,450,1,[3.001083999988623],[3.001090200035833],588890,001,2024-11-14_16h55.29.050,intentional_binding,2024.2.1post4,60.326147265876486,2024-11-14 16h56.07.176880 +0530,
0.1,1000,exp,113,5,9,space,0.28461960004642606,None,250,1,[3.4345570999430493],[3.434562399983406],9,5,113,9,743.2744852000615,,743.2596526000416,743.2744852000615,744.2745510000968,744.2745510000968,744.2745510000968,744.5745062000351,space,0.28461960004642606,None,744.5750304000685,744.6740998667121,744.989491000073,744.9682395000709,744.9687272000592,744.989491000073,744.989491000073,744.989491000073,748.4245653001126,250,1,[3.4345570999430493],[3.434562399983406],588890,001,2024-11-14_16h55.29.050,intentional_binding,2024.2.1post4,60.326147265876486,2024-11-14 16h56.07.176880 +0530,
0.1,1000,exp,114,6,9,space,0.4957754999632016,None,360,1,[5.701054700068198],[5.7010614000028],9,6,114,6,748.4399070000509,,748.4247180001112,748.4399070000509,749.4234157000901,749.4234157000901,749.4405931000365,749.9243636000901,space,0.4957754999632016,None,749.9251082000555,750.0235211667061,750.3387675000122,750.3182449000888,750.3186668000417,750.3387675000122,750.3387675000122,750.3387675000122,756.0404024000745,360,1,[5.701054700068198],[5.7010614000028],588890,001,2024-11-14_16h55.29.050,intentional_binding,2024.2.1post4,60.326147265876486,2024-11-14 16h56.07.176880 +0530,
0.1,400,unexp,115,7,9,space,0.8238245999673381,None,350,1,[3.733334599994123],[3.7333416999317706],9,7,115,0,756.054933700012,,756.0405756001128,756.054933700012,757.0404986001085,757.0404986001085,757.0557081000879,757.8732045000652,space,0.8238245999673381,None,757.8738242000109,757.9726392666964,758.287965400028,758.2683466000017,758.2688289000653,758.287965400028,758.287965400028,758.287965400028,762.0218419000739,350,1,[3.733334599994123],[3.7333416999317706],588890,001,2024-11-14_16h55.29.050,intentional_binding,2024.2.1post4,60.326147265876486,2024-11-14 16h56.07.176880 +0530,
0.7,1000,exp,116,8,9,space,0.3233596000354737,None,640,1,[3.7329472000710666],[3.7329539000056684],9,8,116,8,762.0378966000862,,762.022027600091,762.0378966000862,763.0221511001,763.0221511001,763.0390080000507,763.3559946001042,space,0.3233596000354737,None,763.3567551000742,764.055184866713,764.3709130000789,764.3482606000034,764.3487083000364,764.3709130000789,764.3709130000789,764.3709130000789,768.1043627000181,640,1,[3.7329472000710666],[3.7329539000056684],588890,001,2024-11-14_16h55.29.050,intentional_binding,2024.2.1post4,60.326147265876486,2024-11-14 16h56.07.176880 +0530,
0.4,1000,exp,117,9,9,space,0.10445480002090335,None,250,1,[3.383701399900019],[3.3837067999411374],9,9,117,7,768.1204111000989,,768.1045533000724,768.1204111000989,769.104914000025,769.104914000025,769.1235877000727,769.2231575000333,space,0.10445480002090335,None,769.2242136000423,769.6376091667373,769.9528554000426,769.9389307000674,769.9395737000741,769.9528554000426,769.9528554000426,769.9528554000426,773.3370716000209,250,1,[3.383701399900019],[3.3837067999411374],588890,001,2024-11-14_16h55.29.050,intentional_binding,2024.2.1post4,60.326147265876486,2024-11-14 16h56.07.176880 +0530,
0.4,1000,exp,118,10,9,space,0.3707736999494955,None,150,1,[2.401968099991791],[2.4019738000351936],9,10,118,4,773.353104100097,,773.3372770000715,773.353104100097,774.3377622000407,774.3377622000407,774.353864600067,774.7215305001009,space,0.3707736999494955,None,774.722207200015,775.1374800666856,775.452102100011,775.4324420000194,775.4329771000193,775.452102100011,775.452102100011,775.452102100011,777.8547652000561,150,1,[2.401968099991791],[2.4019738000351936],588890,001,2024-11-14_16h55.29.050,intentional_binding,2024.2.1post4,60.326147265876486,2024-11-14 16h56.07.176880 +0530,
0.1,1000,exp,119,11,9,space,0.43009390006773174,None,250,1,[2.134235900011845],[2.1342420000582933],9,11,119,3,777.8703715000302,,777.8550893000793,777.8703715000302,778.86908460001,778.86908460001,778.86908460001,779.3045692000305,space,0.43009390006773174,None,779.3052682001144,779.4197110667048,779.7354396000737,779.7182197000366,779.7189823000226,779.7354396000737,779.7354396000737,779.7354396000737,781.8702087000711,250,1,[2.134235900011845],[2.1342420000582933],588890,001,2024-11-14_16h55.29.050,intentional_binding,2024.2.1post4,60.326147265876486,2024-11-14 16h56.07.176880 +0530,
0.4,400,unexp,120,0,10,space,0.24730909999925643,None,389,1,[5.683725700015202],[5.683731699944474],10,0,120,1,781.8853635000996,,781.870378700085,781.8853635000996,782.8689652000321,782.8689652000321,782.8851561000338,783.1211382000474,space,0.24730909999925643,None,783.1217997000786,783.5362326667566,783.8849330000812,783.8597769000335,783.8603095000144,783.8849330000812,783.8849330000812,783.8849330000812,789.5691985000158,389,1,[5.683725700015202],[5.683731699944474],588890,001,2024-11-14_16h55.29.050,intentional_binding,2024.2.1post4,60.326147265876486,2024-11-14 16h56.07.176880 +0530,
0.1,1000,exp,121,1,10,space,0.6614825000287965,None,354,1,[4.600897999946028],[4.600903399987146],10,1,121,6,789.5844128000317,,789.5693641001126,789.5844128000317,790.5851460000267,790.5851460000267,790.5851460000267,791.2527093000244,space,0.6614825000287965,None,791.2534289000323,791.3679097666793,791.6838210000424,791.6681844000705,791.6687018000521,791.6838210000424,791.6838210000424,791.6838210000424,796.285254000104,354,1,[4.600897999946028],[4.600903399987146],588890,001,2024-11-14_16h55.29.050,intentional_binding,2024.2.1post4,60.326147265876486,2024-11-14 16h56.07.176880 +0530,
0.1,1000,exp,122,2,10,space,0.39091269997879863,None,250,1,[2.2006233000429347],[2.2006288999691606],10,2,122,9,796.3000545001123,,796.2854113000212,796.3000545001123,797.2840913000982,797.2840913000982,797.3011162000475,797.6842438000022,space,0.39091269997879863,None,797.684782300028,797.7840990666921,798.1002621001098,798.0834314000094,798.0840559001081,798.1002621001098,798.1002621001098,798.1002621001098,800.3013836001046,250,1,[2.2006233000429347],[2.2006288999691606],588890,001,2024-11-14_16h55.29.050,intentional_binding,2024.2.1post4,60.326147265876486,2024-11-14 16h56.07.176880 +0530,
0.4,1000,exp,123,3,10,space,0.6532453999388963,None,150,1,[3.368279500049539],[3.3682850999757648],10,3,123,7,800.3163233000087,,800.301619600039,800.3163233000087,801.3167407000437,801.3167407000437,801.3167407000437,801.9858760000207,space,0.6532453999388963,None,801.9868546000216,802.3998920666675,802.7152484001126,802.6984387000557,802.6990938000381,802.7152484001126,802.7152484001126,802.7152484001126,806.0840951000573,150,1,[3.368279500049539],[3.3682850999757648],588890,001,2024-11-14_16h55.29.050,intentional_binding,2024.2.1post4,60.326147265876486,2024-11-14 16h56.07.176880 +0530,
0.7,1000,exp,124,4,10,space,0.5064233000157401,None,654,1,[4.134148100041784],[4.134154400089756],10,4,124,5,806.0990690001054,,806.0843548000557,806.0990690001054,807.0990879000165,807.0990879000165,807.0990879000165,807.6175176000688,space,0.5064233000157401,None,807.6182504000608,808.3334308667729,808.6650117000099,808.6442400000524,808.6447108000284,808.6650117000099,808.6650117000099,808.6650117000099,812.7997831000248,654,1,[4.134148100041784],[4.134154400089756],588890,001,2024-11-14_16h55.29.050,intentional_binding,2024.2.1post4,60.326147265876486,2024-11-14 16h56.07.176880 +0530,
0.4,1000,exp,125,5,10,space,0.24799800000619143,None,700,1,[3.06911779998336],[3.0691248999210075],10,5,125,10,812.8145236000419,,812.799970800057,812.8145236000419,813.7983892000047,813.7983892000047,813.8151043000398,814.0515438000439,space,0.24799800000619143,None,814.0526340000797,814.4657381667678,814.7803924001055,814.7585618000012,814.758969000075,814.7803924001055,814.7803924001055,814.7803924001055,817.850396700087,700,1,[3.06911779998336],[3.0691248999210075],588890,001,2024-11-14_16h55.29.050,intentional_binding,2024.2.1post4,60.326147265876486,2024-11-14 16h56.07.176880 +0530,
0.1,400,unexp,126,6,10,space,0.30566130008082837,None,500,1,[3.084596600034274],[3.084603499970399],10,6,126,0,817.8649970000843,,817.8505867000204,817.8649970000843,818.8647539000958,818.8647539000958,818.8647539000958,819.181116300053,space,0.30566130008082837,None,819.1815543000121,819.2811727667615,819.596668900107,819.5784509000368,819.5790905000176,819.596668900107,819.596668900107,819.596668900107,822.6817843000172,500,1,[3.084596600034274],[3.084603499970399],588890,001,2024-11-14_16h55.29.050,intentional_binding,2024.2.1post4,60.326147265876486,2024-11-14 16h56.07.176880 +0530,
0.7,1000,exp,127,7,10,space,2.756363600026816,None,340,1,[2.883148599998094],[2.883154100039974],10,7,127,8,822.6967224000255,,822.6819483001018,822.6967224000255,823.6813424000284,823.6813424000284,823.6974903000519,826.4473283000989,space,2.756363600026816,None,826.4478109000484,827.1477877667096,827.4632529000519,827.45250210003,827.4528906000778,827.4632529000519,827.4632529000519,827.4632529000519,830.3469550000736,340,1,[2.883148599998094],[2.883154100039974],588890,001,2024-11-14_16h55.29.050,intentional_binding,2024.2.1post4,60.326147265876486,2024-11-14 16h56.07.176880 +0530,
0.1,1000,exp,128,8,10,space,0.26409099996089935,None,150,1,[8.833946900092997],[8.833953100023791],10,8,128,3,830.3630894001108,,830.347207600018,830.3630894001108,831.3474188001128,831.3474188001128,831.3639211000409,831.6145404000999,space,0.26409099996089935,None,831.6154234000714,831.7303098667801,832.0448074000888,832.0284479000838,832.0291078001028,832.0448074000888,832.0448074000888,832.0448074000888,840.8792968000052,150,1,[8.833946900092997],[8.833953100023791],588890,001,2024-11-14_16h55.29.050,intentional_binding,2024.2.1post4,60.326147265876486,2024-11-14 16h56.07.176880 +0530,
0.7,1000,exp,129,9,10,space,0.4307532000821084,None,759,1,[2.7514597000554204],[2.751474400050938],10,9,129,11,840.8939876001095,,840.8794665000169,840.8939876001095,841.8953587000724,841.8953587000724,841.8953587000724,842.3296571000246,space,0.4307532000821084,None,842.3304450000869,843.0287137667804,843.3442373001017,843.3280852000462,843.3285846000072,843.3442373001017,843.3442373001017,843.3442373001017,846.0964225000935,759,1,[2.7514597000554204],[2.751474400050938],588890,001,2024-11-14_16h55.29.050,intentional_binding,2024.2.1post4,60.326147265876486,2024-11-14 16h56.07.176880 +0530,
0.7,400,unexp,130,10,10,space,0.27743609994649887,None,569,1,[1.6172978000249714],[1.617305799969472],10,10,130,2,846.1108421001118,,846.0965959000168,846.1108421001118,847.1115388000617,847.1115388000617,847.1115388000617,847.3950417001033,space,0.27743609994649887,None,847.3957653000252,848.0947020666829,848.4102723000105,848.3979606000939,848.3984859000193,848.4102723000105,848.4102723000105,848.4102723000105,850.0282208001008,569,1,[1.6172978000249714],[1.617305799969472],588890,001,2024-11-14_16h55.29.050,intentional_binding,2024.2.1post4,60.326147265876486,2024-11-14 16h56.07.176880 +0530,
0.4,1000,exp,131,11,10,space,0.42635249998420477,None,459,1,[1.683267300017178],[1.6832732000621036],10,11,131,4,850.0435972000705,,850.0284299000632,850.0435972000705,851.0275505000027,851.0275505000027,851.0443332000868,851.4611484000925,space,0.42635249998420477,None,851.4617809000192,851.8780221667296,852.1939288000576,852.1784462000942,852.1787979000947,852.1939288000576,852.1939288000576,852.1939288000576,853.8776878000936,459,1,[1.683267300017178],[1.6832732000621036],588890,001,2024-11-14_16h55.29.050,intentional_binding,2024.2.1post4,60.326147265876486,2024-11-14 16h56.07.176880 +0530,
0.4,1000,exp,132,0,11,space,0.3620605000760406,None,124,1,[2.500426599988714],[2.500433100038208],11,0,132,7,853.8926725001074,,853.8778596000047,853.8926725001074,854.8934083000058,854.8934083000058,854.8934083000058,855.2608985000988,space,0.3620605000760406,None,855.2615111001069,855.6765587666926,855.9920861000428,855.9789619001094,855.9796142000705,855.9920861000428,855.9920861000428,855.9920861000428,858.4930309000192,124,1,[2.500426599988714],[2.500433100038208],588890,001,2024-11-14_16h55.29.050,intentional_binding,2024.2.1post4,60.326147265876486,2024-11-14 16h56.07.176880 +0530,
0.1,400,unexp,133,1,11,space,0.3351591000100598,None,325,1,[4.1678818999789655],[4.167891399934888],11,1,133,0,858.509218600113,,858.4932193000568,858.509218600113,859.4928548000753,859.4928548000753,859.5097393000033,859.8428520000307,space,0.3351591000100598,None,859.8434810000472,859.9426884666939,860.2586693000048,860.243693400058,860.2441788000287,860.2586693000048,860.2586693000048,860.2586693000048,864.4272808000678,325,1,[4.1678818999789655],[4.167891399934888],588890,001,2024-11-14_16h55.29.050,intentional_binding,2024.2.1post4,60.326147265876486,2024-11-14 16h56.07.176880 +0530,
0.7,1000,exp,134,2,11,space,0.2656040999572724,None,547,1,[1.2511808999115601],[1.251188899972476],11,2,134,5,864.441630300018,,864.4275582000846,864.441630300018,865.4421796000097,865.4421796000097,865.4421796000097,865.7093764001038,space,0.2656040999572724,None,865.710109500098,866.4252559666677,866.7405613000738,866.7180604001042,866.7184868000913,866.7405613000738,866.7405613000738,866.7405613000738,867.9923541001044,547,1,[1.2511808999115601],[1.251188899972476],588890,001,2024-11-14_16h55.29.050,intentional_binding,2024.2.1post4,60.326147265876486,2024-11-14 16h56.07.176880 +0530,
0.1,1000,exp,135,3,11,space,1.0558932999847457,None,843,1,[1.585262400098145],[1.5852681000251323],11,3,135,6,868.0079475000966,,867.9925533001078,868.0079475000966,868.9920218000188,868.9920218000188,869.0082937000552,870.0594977000728,space,1.0558932999847457,None,870.0603969000513,870.174862966702,870.4574330000905,870.4406466000946,870.4411479000701,870.4574330000905,870.4574330000905,870.4574330000905,872.0432056001155,843,1,[1.585262400098145],[1.5852681000251323],588890,001,2024-11-14_16h55.29.050,intentional_binding,2024.2.1post4,60.326147265876486,2024-11-14 16h56.07.176880 +0530,
0.7,1000,exp,136,4,11,space,2.1022000000812113,None,549,1,[3.667428500019014],[3.6674347000662237],11,4,136,8,872.056991700083,,872.043376000016,872.056991700083,873.0575075000525,873.0575075000525,873.0575075000525,875.1754558000248,space,2.1022000000812113,None,875.1762722000713,875.874522166738,876.1897785000037,876.1682164000813,876.1687841000967,876.1897785000037,876.1897785000037,876.1897785000037,879.85802350007,549,1,[3.667428500019014],[3.6674347000662237],588890,001,2024-11-14_16h55.29.050,intentional_binding,2024.2.1post4,60.326147265876486,2024-11-14 16h56.07.176880 +0530,
0.4,400,unexp,137,5,11,space,0.7568495000014082,None,248,1,[2.317848899983801],[2.317863399977796],11,5,137,1,879.8725806000875,,879.8582038000459,879.8725806000875,880.873575600097,880.873575600097,880.873575600097,881.6407559000654,space,0.7568495000014082,None,881.6414940000977,882.0401910667463,882.3560462000314,882.3384834000608,882.3393530000467,882.3560462000314,882.3560462000314,882.3560462000314,884.6751065000426,248,1,[2.317848899983801],[2.317863399977796],588890,001,2024-11-14_16h55.29.050,intentional_binding,2024.2.1post4,60.326147265876486,2024-11-14 16h56.07.176880 +0530,
0.1,1000,exp,138,6,11,space,0.27175979991443455,None,245,1,[2.884611999965273],[2.884618099895306],11,6,138,9,884.6902800000971,,884.6754153000657,884.6902800000971,885.6894694000948,885.6894694000948,885.7055561000016,885.9733155000722,space,0.27175979991443455,None,885.973916200106,886.072731766679,886.3884610000532,886.3681771000847,886.3693910000147,886.3884610000532,886.3884610000532,886.3884610000532,889.2735952000367,245,1,[2.884611999965273],[2.884618099895306],588890,001,2024-11-14_16h55.29.050,intentional_binding,2024.2.1post4,60.326147265876486,2024-11-14 16h56.07.176880 +0530,
0.7,1000,exp,139,7,11,space,0.4117516999831423,None,365,1,[2.819447600049898],[2.819459900027141],11,7,139,11,889.2880727000302,,889.2738015000941,889.2880727000302,890.2883698000805,890.2883698000805,890.2883698000805,890.7064720001072,space,0.4117516999831423,None,890.7072465000674,891.4061091667429,891.720758200041,891.6981193000684,891.6985968000954,891.720758200041,891.720758200041,891.720758200041,894.5411538000917,365,1,[2.819447600049898],[2.819459900027141],588890,001,2024-11-14_16h55.29.050,intentional_binding,2024.2.1post4,60.326147265876486,2024-11-14 16h56.07.176880 +0530,
0.4,1000,exp,140,8,11,space,0.27594359999056906,None,954,1,[1.9349490000167862],[1.934954799944535],11,8,140,4,894.5556273000548,,894.5414606000995,894.5556273000548,895.5546154000331,895.5546154000331,895.5546154000331,895.8384488000302,space,0.27594359999056906,None,895.8389321001014,896.238551666673,896.5540554000763,896.5416031000204,896.5420630000299,896.5540554000763,896.5540554000763,896.5540554000763,898.4896295000799,954,1,[1.9349490000167862],[1.934954799944535],588890,001,2024-11-14_16h55.29.050,intentional_binding,2024.2.1post4,60.326147265876486,2024-11-14 16h56.07.176880 +0530,
0.7,400,unexp,141,9,11,space,0.4999074999941513,None,7548,1,[1.267834199941717],[1.2678446000209078],11,9,141,2,898.5039760000072,,898.489796900074,898.5039760000072,899.5045117000118,899.5045117000118,899.5045117000118,900.0054779000347,space,0.4999074999941513,None,900.0059871000703,900.7046455667044,901.019424200058,900.998669700115,900.9991958000464,901.019424200058,901.019424200058,901.019424200058,902.2879634000128,7548,1,[1.267834199941717],[1.2678446000209078],588890,001,2024-11-14_16h55.29.050,intentional_binding,2024.2.1post4,60.326147265876486,2024-11-14 16h56.07.176880 +0530,
0.4,1000,exp,142,10,11,space,2.4579179000575095,None,754,1,[1.6674154999200255],[1.667421399964951],11,10,142,10,902.3038552000653,,902.2881371000549,902.3038552000653,903.3028886000393,903.3028886000393,903.3028886000393,905.7708563000197,space,2.4579179000575095,None,905.7713787000393,906.1705852667258,906.4858903000131,906.4684844000731,906.4693947000196,906.4858903000131,906.4858903000131,906.4858903000131,908.1538219000213,754,1,[1.6674154999200255],[1.667421399964951],588890,001,2024-11-14_16h55.29.050,intentional_binding,2024.2.1post4,60.326147265876486,2024-11-14 16h56.07.176880 +0530,
0.1,1000,exp,143,11,11,space,1.0817369000287727,None,548,1,[3.0685144999297336],[3.0685210999799892],11,11,143,3,908.1693113000365,,908.1539888000116,908.1693113000365,909.1522842000704,909.1522842000704,909.1701138000935,910.2364741000347,space,1.0817369000287727,None,910.237022300018,910.3365086666929,910.6516052000225,910.6286048000911,910.6293294000207,910.6516052000225,910.6516052000225,910.6516052000225,913.720618100022,548,1,[3.0685144999297336],[3.0685210999799892],588890,001,2024-11-14_16h55.29.050,intentional_binding,2024.2.1post4,60.326147265876486,2024-11-14 16h56.07.176880 +0530,
0.7,1000,exp,144,0,12,space,0.4848358000162989,None,124,1,[2.4839478000067174],[2.483955099945888],12,0,144,8,913.7357411000412,,913.7207978001097,913.7357411000412,914.7356868000934,914.7356868000934,914.7356868000934,915.2357038001064,space,0.4848358000162989,None,915.2364362000953,915.9352935667305,916.2508446000284,916.2341714000795,916.2349439000245,916.2508446000284,916.2508446000284,916.2508446000284,918.7356274001068,124,1,[2.4839478000067174],[2.483955099945888],588890,001,2024-11-14_16h55.29.050,intentional_binding,2024.2.1post4,60.326147265876486,2024-11-14 16h56.07.176880 +0530,
0.4,1000,exp,145,1,12,space,0.36819670000113547,None,549,1,[1.4015723000047728],[1.4015822999645025],12,1,145,10,918.7517737000016,,918.7358262001071,918.7517737000016,919.7341137001058,919.7341137001058,919.7509572000708,920.1184155000374,space,0.36819670000113547,None,920.1189498000313,920.5184284666941,920.8335003000684,920.8096674000844,920.8102221000008,920.8335003000684,920.8335003000684,920.8335003000684,922.2359587000683,549,1,[1.4015723000047728],[1.4015822999645025],588890,001,2024-11-14_16h55.29.050,intentional_binding,2024.2.1post4,60.326147265876486,2024-11-14 16h56.07.176880 +0530,
0.1,400,unexp,146,2,12,space,0.640045200008899,None,325,1,[3.434175799950026],[3.4341848000185564],12,2,146,0,922.2517132000066,,922.2362443000311,922.2517132000066,923.2512215001043,923.2512215001043,923.2512215001043,923.9020506000379,space,0.640045200008899,None,923.902580400114,924.0177164667441,924.3336387000745,924.3186143001076,924.3190123001114,924.3336387000745,924.3336387000745,924.3336387000745,927.7683778000064,325,1,[3.434175799950026],[3.4341848000185564],588890,001,2024-11-14_16h55.29.050,intentional_binding,2024.2.1post4,60.326147265876486,2024-11-14 16h56.07.176880 +0530,
0.1,1000,exp,147,3,12,space,0.7800647000549361,None,640,1,[3.9175554000539705],[3.9175614000996575],12,3,147,6,927.7835310000228,,927.7685432001017,927.7835310000228,928.7843841001159,928.7843841001159,928.7843841001159,929.5694415000034,space,0.7800647000549361,None,929.5702926000813,929.6828826667663,929.99930460006,929.9778677000431,929.9783067000099,929.99930460006,929.99930460006,929.99930460006,933.9176770000486,640,1,[3.9175554000539705],[3.9175614000996575],588890,001,2024-11-14_16h55.29.050,intentional_binding,2024.2.1post4,60.326147265876486,2024-11-14 16h56.07.176880 +0530,
0.4,400,unexp,148,4,12,space,0.9500944999745116,None,980,1,[2.701308500021696],[2.701315400074236],12,4,148,1,933.933395500062,,933.9179923000047,933.933395500062,934.9434132000897,934.9434132000897,934.9510281000985,935.9003990000347,space,0.9500944999745116,None,935.9012176000979,936.3001096667178,936.6147124000126,936.5984103000956,936.5993465000065,936.6147124000126,936.6147124000126,936.6147124000126,939.3165613000747,980,1,[2.701308500021696],[2.701315400074236],588890,001,2024-11-14_16h55.29.050,intentional_binding,2024.2.1post4,60.326147265876486,2024-11-14 16h56.07.176880 +0530,
0.7,1000,exp,149,5,12,space,0.6367014999268577,None,541,1,[3.316779699991457],[3.3167853000340983],12,5,149,5,939.331996700028,,939.3167246000376,939.331996700028,940.3165115000447,940.3165115000447,940.3329116000095,940.9661137000658,space,0.6367014999268577,None,940.9666021000594,941.6664227666954,941.9819410000928,941.9698075000197,941.9701735000126,941.9819410000928,941.9819410000928,941.9819410000928,945.2992941000266,541,1,[3.316779699991457],[3.3167853000340983],588890,001,2024-11-14_16h55.29.050,intentional_binding,2024.2.1post4,60.326147265876486,2024-11-14 16h56.07.176880 +0530,
0.4,1000,exp,150,6,12,space,0.4633613000623882,None,687,1,[3.2177230999805033],[3.2177291000261903],12,6,150,7,945.3144235000946,,945.299471000093,945.3144235000946,946.2988561000675,946.2988561000675,946.3152523000026,946.766723500099,space,0.4633613000623882,None,946.7674539000727,947.1822576667803,947.4969160000328,947.4779679001076,947.4787117000669,947.4969160000328,947.4969160000328,947.4969160000328,950.715234000003,687,1,[3.2177230999805033],[3.2177291000261903],588890,001,2024-11-14_16h55.29.050,intentional_binding,2024.2.1post4,60.326147265876486,2024-11-14 16h56.07.176880 +0530,
0.7,400,unexp,151,7,12,space,0.0004997999640181661,None,354,1,[2.5657558999955654],[2.565762300044298],12,7,151,2,950.7308956000488,,950.7154062000336,950.7308956000488,951.7148881000467,951.7148881000467,951.7314658000832,951.7167249000631,space,0.0004997999640181661,None,951.717523700092,952.4302625667226,952.7489031000296,952.7282633000286,952.7290045000846,952.7489031000296,952.7489031000296,952.7489031000296,955.3152060001157,354,1,[2.5657558999955654],[2.565762300044298],588890,001,2024-11-14_16h55.29.050,intentional_binding,2024.2.1post4,60.326147265876486,2024-11-14 16h56.07.176880 +0530,
0.1,1000,exp,152,8,12,space,2.68274159997236,None,325,1,[2.7342952000908554],[2.7343051000498235],12,8,152,9,955.3301320000319,,955.3153799000429,955.3301320000319,956.3306639000075,956.3306639000075,956.3306639000075,959.0147972000996,space,2.68274159997236,None,959.0153722000541,959.1295224667449,959.445656600059,959.4283516000723,959.4290899001062,959.445656600059,959.445656600059,959.445656600059,962.1807642000495,325,1,[2.7342952000908554],[2.7343051000498235],588890,001,2024-11-14_16h55.29.050,intentional_binding,2024.2.1post4,60.326147265876486,2024-11-14 16h56.07.176880 +0530,
0.4,1000,exp,153,9,12,space,0.258669100003317,None,157,1,[1.3834121999097988],[1.3834176999516785],12,9,153,4,962.1968348000664,,962.1810719000641,962.1968348000664,963.1974311000668,963.1974311000668,963.1974311000668,963.4636469000252,space,0.258669100003317,None,963.4643867000705,963.8640344667403,964.179264800041,964.1639697001083,964.1644267000956,964.179264800041,964.179264800041,964.179264800041,965.5632022001082,157,1,[1.3834121999097988],[1.3834176999516785],588890,001,2024-11-14_16h55.29.050,intentional_binding,2024.2.1post4,60.326147265876486,2024-11-14 16h56.07.176880 +0530,
0.1,1000,exp,154,10,12,space,0.5318341000238433,None,235,1,[2.1833071999717504],[2.1833139000227675],12,10,154,3,965.5782934000017,,965.5633739000186,965.5782934000017,966.5630669000093,966.5630669000093,966.5805181000615,967.097599400091,space,0.5318341000238433,None,967.0983188000973,967.1966486666972,967.5119915000396,967.4956985000754,967.496020300081,967.5119915000396,967.5119915000396,967.5119915000396,969.6958538000472,235,1,[2.1833071999717504],[2.1833139000227675],588890,001,2024-11-14_16h55.29.050,intentional_binding,2024.2.1post4,60.326147265876486,2024-11-14 16h56.07.176880 +0530,
0.7,1000,exp,155,11,12,space,0.4779718000208959,None,657,1,[2.736175599973649],[2.73618190002162],12,11,155,11,969.710981600103,,969.6960287000984,969.710981600103,970.6949245000724,970.6949245000724,970.7118505000835,971.1808508000104,space,0.4779718000208959,None,971.1817233000183,971.8949743667074,972.2106922001112,972.1986952000298,972.1992396001006,972.2106922001112,972.2106922001112,972.2106922001112,974.9476289000595,657,1,[2.736175599973649],[2.73618190002162],588890,001,2024-11-14_16h55.29.050,intentional_binding,2024.2.1post4,60.326147265876486,2024-11-14 16h56.07.176880 +0530,
0.1,1000,exp,156,0,13,space,0.26537389995064586,None,154,1,[1.801033900002949],[1.8010400999337435],13,0,156,9,974.9618794000708,,974.9478571000509,974.9618794000708,975.9613784000976,975.9613784000976,975.9613784000976,976.2294249000261,space,0.26537389995064586,None,976.2300220000325,976.345765266746,976.6606168000726,976.6485270000994,976.6489416001132,976.6606168000726,976.6606168000726,976.6606168000726,978.4621866000816,154,1,[1.801033900002949],[1.8010400999337435],588890,001,2024-11-14_16h55.29.050,intentional_binding,2024.2.1post4,60.326147265876486,2024-11-14 16h56.07.176880 +0530,
0.7,1000,exp,157,1,13,space,0.566741400049068,None,789,1,[2.5692106999922544],[2.569216200034134],13,1,157,11,978.4766648000805,,978.4623565000948,978.4766648000805,979.4770384000149,979.4770384000149,979.4770384000149,980.0449997000396,space,0.566741400049068,None,980.0455152000068,980.7597836667594,981.0757604000391,981.0585170000559,981.0591788000893,981.0757604000391,981.0757604000391,981.0757604000391,983.6455084000481,789,1,[2.5692106999922544],[2.569216200034134],588890,001,2024-11-14_16h55.29.050,intentional_binding,2024.2.1post4,60.326147265876486,2024-11-14 16h56.07.176880 +0530,
0.4,1000,exp,158,2,13,space,0.2695150999352336,None,587,1,[2.7341982000507414],[2.734215500066057],13,2,158,7,983.661538900109,,983.64567420003,983.661538900109,984.6599115000572,984.6599115000572,984.6599115000572,984.9448963000905,space,0.2695150999352336,None,984.9454111000523,985.344082466738,985.6600565001136,985.6386204001028,985.6397662000963,985.6600565001136,985.6600565001136,985.6600565001136,988.3950965000549,587,1,[2.7341982000507414],[2.734215500066057],588890,001,2024-11-14_16h55.29.050,intentional_binding,2024.2.1post4,60.326147265876486,2024-11-14 16h56.07.176880 +0530,
0.7,1000,exp,159,3,13,space,0.7376516000367701,None,354,1,[2.7672813000390306],[2.767289800103754],13,3,159,5,988.4096366000595,,988.3952806000598,988.4096366000595,989.4088029001141,989.4088029001141,989.4088029001141,990.1605598001042,space,0.7376516000367701,None,990.1613334000576,990.8596542666821,991.1748050000751,991.1588929001009,991.1594774000114,991.1748050000751,991.1748050000751,991.1748050000751,993.9429445000133,354,1,[2.7672813000390306],[2.767289800103754],588890,001,2024-11-14_16h55.29.050,intentional_binding,2024.2.1post4,60.326147265876486,2024-11-14 16h56.07.176880 +0530,
0.1,1000,exp,160,4,13,space,0.23825539997778833,None,254,1,[1.9017916999291629],[1.901806200039573],13,4,160,6,993.9589382000268,,993.943190400023,993.9589382000268,994.9420493000653,994.9420493000653,994.9587325000903,995.1940548000857,space,0.23825539997778833,None,995.195248800097,995.3084820666738,995.6243155000266,995.6087944000028,995.6093713000882,995.6243155000266,995.6243155000266,995.6243155000266,997.5266548000509,254,1,[1.9017916999291629],[1.901806200039573],588890,001,2024-11-14_16h55.29.050,intentional_binding,2024.2.1post4,60.326147265876486,2024-11-14 16h56.07.176880 +0530,
0.7,400,unexp,161,5,13,space,0.7497640000656247,None,687,1,[2.834480300080031],[2.834489500033669],13,5,161,2,997.5443495000945,,997.5268680000445,997.5443495000945,998.541870700079,998.541870700079,998.5584520000266,999.2927490000147,space,0.7497640000656247,None,999.2935171000427,999.9923182667155,1000.307326600072,1000.2884937000927,1000.2891754000448,1000.307326600072,1000.307326600072,1000.307326600072,1003.1425514000002,687,1,[2.834480300080031],[2.834489500033669],588890,001,2024-11-14_16h55.29.050,intentional_binding,2024.2.1post4,60.326147265876486,2024-11-14 16h56.07.176880 +0530,
0.1,1000,exp,162,6,13,space,0.7772502000443637,None,156,1,[2.8678992999484763],[2.8679078000131994],13,6,162,3,1003.1580020000692,,1003.1428072000854,1003.1580020000692,1004.1579293000977,1004.1579293000977,1004.1579293000977,1004.9419662000146,space,0.7772502000443637,None,1004.9426752000581,1005.0575717667273,1005.3735970000271,1005.358163200086,1005.3590090000071,1005.3735970000271,1005.3735970000271,1005.3735970000271,1008.2425230001099,156,1,[2.8678992999484763],[2.8679078000131994],588890,001,2024-11-14_16h55.29.050,intentional_binding,2024.2.1post4,60.326147265876486,2024-11-14 16h56.07.176880 +0530,
0.1,400,unexp,163,7,13,space,0.5227060000179335,None,258,1,[3.3523738000076264],[3.3523807999445125],13,7,163,0,1008.2568760000868,,1008.2428302000044,1008.2568760000868,1009.2573422000278,1009.2573422000278,1009.2573422000278,1009.7908593000611,space,0.5227060000179335,None,1009.791545700049,1009.8906956667236,1010.2059361001011,1010.1890499000438,1010.1898147000466,1010.2059361001011,1010.2059361001011,1010.2059361001011,1013.5591406000312,258,1,[3.3523738000076264],[3.3523807999445125],588890,001,2024-11-14_16h55.29.050,intentional_binding,2024.2.1post4,60.326147265876486,2024-11-14 16h56.07.176880 +0530,
0.4,400,unexp,164,8,13,space,1.1385326000163332,None,159,1,[1.5665480999741703],[1.566553800017573],13,8,164,1,1013.5733073001029,,1013.5593313000863,1013.5733073001029,1014.5733369000955,1014.5733369000955,1014.5901422000024,1015.7242507000919,space,1.1385326000163332,None,1015.7250295000849,1016.1391266667672,1016.4556926001096,1016.4388368000509,1016.4395420000656,1016.4556926001096,1016.4556926001096,1016.4556926001096,1018.0227576000616,159,1,[1.5665480999741703],[1.566553800017573],588890,001,2024-11-14_16h55.29.050,intentional_binding,2024.2.1post4,60.326147265876486,2024-11-14 16h56.07.176880 +0530,
